// Data mode  : Standard
// Transmission speed  : 50Hz
// Accelerometer sensor's range  : 2g
// Gyroscope sensor's range  : 250dps
//
//ARTIFACT,NUM,DATE,ACC_X,ACC_Y,ACC_Z,EOG_L1,EOG_R1,EOG_L2,EOG_R2,EOG_H1,EOG_H2,EOG_V1,EOG_V2
,1,2018/03/15 00:36:38.19,-1836,11827,-11291,-60,90,-56,100,-150,-156,-15,-22
,2,2018/03/15 00:36:38.21,-1857,11750,-11220,-55,98,-56,90,-153,-146,-21,-17
,3,2018/03/15 00:36:38.23,-1806,11621,-11204,-52,96,-65,76,-148,-141,-22,-5
,4,2018/03/15 00:36:38.25,-1889,11603,-11279,-67,64,-61,63,-131,-124,1,-1
,5,2018/03/15 00:36:38.27,-1899,11551,-11354,-61,58,-62,66,-119,-128,1,-2
,6,2018/03/15 00:36:38.29,-1855,11521,-11358,-76,52,-91,39,-128,-130,12,26
,7,2018/03/15 00:36:38.31,-1823,11535,-11255,-94,34,-99,28,-128,-127,30,35
,8,2018/03/15 00:36:38.33,-1793,11591,-11360,-93,40,-95,27,-133,-122,26,34
,9,2018/03/15 00:36:38.35,-1810,11554,-11400,-99,20,-99,21,-119,-120,39,39
,10,2018/03/15 00:36:38.37,-1840,11579,-11379,-97,21,-94,26,-118,-120,38,34
,11,2018/03/15 00:36:38.39,-1886,11534,-11334,-106,8,-114,-3,-114,-111,49,58
,12,2018/03/15 00:36:38.41,-1900,11476,-11309,-98,13,-75,38,-111,-113,42,18
,13,2018/03/15 00:36:38.43,-1928,11498,-11304,-49,72,-40,85,-121,-125,-11,-22
,14,2018/03/15 00:36:38.45,-1964,11489,-11286,-36,93,-31,102,-129,-133,-28,-35
,15,2018/03/15 00:36:38.47,-1921,11550,-11297,-26,104,-11,117,-130,-128,-39,-53
,16,2018/03/15 00:36:38.49,-1943,11598,-11362,-16,106,-21,102,-122,-123,-45,-40
,17,2018/03/15 00:36:38.51,-1959,11567,-11412,-20,102,-38,79,-122,-117,-41,-20
,18,2018/03/15 00:36:38.53,-2000,11564,-11368,-32,89,-28,78,-121,-106,-28,-25
,19,2018/03/15 00:36:38.55,-2004,11544,-11291,-31,76,-34,80,-107,-114,-22,-23
,20,2018/03/15 00:36:38.57,-1902,11493,-11342,-39,71,-27,87,-110,-114,-16,-30
,21,2018/03/15 00:36:38.59,-1951,11480,-11362,-33,74,-33,60,-107,-93,-20,-13
,22,2018/03/15 00:36:38.61,-1912,11517,-11366,-31,56,-47,41,-87,-88,-12,3
,23,2018/03/15 00:36:38.63,-2016,11568,-11354,-41,57,-40,63,-98,-103,-8,-11
,24,2018/03/15 00:36:38.65,-1969,11585,-11384,-48,54,-40,64,-102,-104,-3,-12
,25,2018/03/15 00:36:38.67,-1928,11580,-11380,-47,60,-60,58,-107,-118,-6,1
,26,2018/03/15 00:36:38.69,-1917,11502,-11344,-69,49,-65,49,-118,-114,10,8
,27,2018/03/15 00:36:38.71,-2017,11556,-11394,-45,73,-50,67,-118,-117,-14,-8
,28,2018/03/15 00:36:38.73,-2052,11539,-11396,-46,74,-46,71,-120,-117,-14,-12
,29,2018/03/15 00:36:38.75,-1993,11586,-11378,-54,64,-53,69,-118,-122,-5,-8
,30,2018/03/15 00:36:38.77,-1987,11651,-11360,-59,61,-55,63,-120,-118,-1,-4
,31,2018/03/15 00:36:38.79,-2021,11550,-11337,-57,63,-61,59,-120,-120,-3,1
,32,2018/03/15 00:36:38.81,-1999,11513,-11329,-52,66,-50,57,-118,-107,-7,-3
,33,2018/03/15 00:36:38.83,-2096,11486,-11406,-44,62,-47,59,-106,-106,-9,-6
,34,2018/03/15 00:36:38.85,-2056,11541,-11330,-42,62,-32,74,-104,-106,-10,-21
,35,2018/03/15 00:36:38.87,-2101,11597,-11270,-30,74,-19,84,-104,-103,-22,-32
,36,2018/03/15 00:36:38.89,-2165,11613,-11394,-22,82,-35,69,-104,-104,-30,-17
,37,2018/03/15 00:36:38.91,-2181,11592,-11446,-32,75,-34,72,-107,-106,-21,-19
,38,2018/03/15 00:36:38.93,-2162,11585,-11313,-42,62,-33,71,-104,-104,-10,-19
,39,2018/03/15 00:36:38.95,-2201,11559,-11199,-29,68,-23,80,-97,-103,-19,-28
,40,2018/03/15 00:36:38.97,-2208,11611,-11245,-16,76,-15,65,-92,-80,-30,-25
,41,2018/03/15 00:36:38.99,-2190,11591,-11335,-10,64,-14,56,-74,-70,-27,-21
,42,2018/03/15 00:36:39.01,-2230,11551,-11353,-8,66,-1,76,-74,-77,-29,-37
,43,2018/03/15 00:36:39.03,-2294,11541,-11330,-6,76,-9,78,-82,-87,-35,-34
,44,2018/03/15 00:36:39.05,-2486,11484,-11301,-22,66,-21,70,-88,-91,-22,-24
,45,2018/03/15 00:36:39.07,-2382,11459,-11395,-19,72,-21,75,-91,-96,-26,-27
,46,2018/03/15 00:36:39.09,-2433,11408,-11325,-32,63,-46,42,-95,-88,-15,2
,47,2018/03/15 00:36:39.11,-2448,11455,-11331,-38,53,-26,61,-91,-87,-7,-17
,48,2018/03/15 00:36:39.13,-2450,11475,-11328,-16,74,-12,81,-90,-93,-29,-34
,49,2018/03/15 00:36:39.15,-2533,11449,-11388,-19,73,-16,82,-92,-98,-27,-33
,50,2018/03/15 00:36:39.17,-2563,11481,-11354,-16,82,-16,79,-98,-95,-33,-31
,51,2018/03/15 00:36:39.19,-2545,11440,-11322,-16,80,-23,73,-96,-96,-32,-25
,52,2018/03/15 00:36:39.21,-2646,11344,-11401,-18,83,-14,89,-101,-103,-32,-37
,53,2018/03/15 00:36:39.23,-2723,11271,-11418,-16,86,-19,83,-102,-102,-35,-32
,54,2018/03/15 00:36:39.25,-2737,11258,-11359,-20,77,-9,93,-97,-102,-28,-42
,55,2018/03/15 00:36:39.27,-2745,11299,-11348,-5,98,-17,81,-103,-98,-46,-32
,56,2018/03/15 00:36:39.29,-2796,11299,-11383,-25,74,-32,66,-99,-98,-24,-17
,57,2018/03/15 00:36:39.31,-2771,11312,-11411,-25,74,-25,72,-99,-97,-24,-23
,58,2018/03/15 00:36:39.33,-2912,11279,-11388,-24,72,-26,70,-96,-96,-24,-22
,59,2018/03/15 00:36:39.35,-2873,11196,-11367,-37,60,-35,63,-97,-98,-11,-14
,60,2018/03/15 00:36:39.37,-2870,11158,-11406,-37,68,-35,72,-105,-107,-15,-18
,61,2018/03/15 00:36:39.39,-2921,11123,-11443,-32,75,-28,80,-107,-108,-21,-26
,62,2018/03/15 00:36:39.41,-2834,11089,-11398,-26,87,-28,81,-113,-109,-30,-26
,63,2018/03/15 00:36:39.43,-2901,11082,-11446,-37,68,-32,73,-105,-105,-15,-20
,64,2018/03/15 00:36:39.45,-2876,11104,-11434,-36,66,-37,66,-102,-103,-15,-14
,65,2018/03/15 00:36:39.47,-2879,11158,-11489,-38,67,-48,61,-105,-109,-14,-6
,66,2018/03/15 00:36:39.49,-2833,11224,-11419,-58,54,-64,48,-112,-112,2,8
,67,2018/03/15 00:36:39.51,-2781,11220,-11446,-54,57,-44,63,-111,-107,-1,-9
,68,2018/03/15 00:36:39.53,-2776,11381,-11441,-47,58,-43,66,-105,-109,-5,-11
,69,2018/03/15 00:36:39.55,-2809,11354,-11417,-40,68,-35,68,-108,-103,-14,-16
,70,2018/03/15 00:36:39.57,-2871,11310,-11438,-43,57,-54,45,-100,-99,-7,4
,71,2018/03/15 00:36:39.59,-2886,11285,-11290,-44,57,-39,59,-101,-98,-6,-10
,72,2018/03/15 00:36:39.61,-2855,11286,-11219,-38,57,-36,56,-95,-92,-9,-10
,73,2018/03/15 00:36:39.63,-2849,11316,-11407,-36,58,-32,66,-94,-98,-11,-17
,74,2018/03/15 00:36:39.65,-2906,11388,-11409,-31,62,-31,58,-93,-89,-15,-13
,75,2018/03/15 00:36:39.67,-2827,11450,-11397,-23,67,-28,63,-90,-91,-22,-17
,76,2018/03/15 00:36:39.69,-2817,11490,-11394,-33,63,-41,62,-96,-103,-15,-10
,77,2018/03/15 00:36:39.71,-2868,11415,-11389,-40,69,-36,78,-109,-114,-14,-21
,78,2018/03/15 00:36:39.73,-2907,11346,-11374,-46,64,-52,49,-110,-101,-9,1
,79,2018/03/15 00:36:39.75,-2896,11253,-11365,-71,21,-67,25,-92,-92,25,21
,80,2018/03/15 00:36:39.77,-2854,11350,-11378,2,92,92,190,-90,-98,-47,-141
,81,2018/03/15 00:36:39.79,-2893,11367,-11337,201,313,371,501,-112,-130,-257,-436
,82,2018/03/15 00:36:39.81,-2813,11475,-11305,672,828,1086,1253,-156,-167,-750,-1169
,83,2018/03/15 00:36:39.83,-2934,11466,-11306,1382,1496,1382,1408,-114,-26,-1439,-1395
,84,2018/03/15 00:36:39.85,-2914,11442,-11270,1116,1109,831,836,7,-5,-1112,-833
,85,2018/03/15 00:36:39.87,-2817,11412,-11387,644,674,496,548,-30,-52,-659,-522
,86,2018/03/15 00:36:39.89,-2847,11432,-11365,379,446,288,361,-67,-73,-412,-324
,87,2018/03/15 00:36:39.91,-2837,11417,-11314,238,312,224,300,-74,-76,-275,-262
,88,2018/03/15 00:36:39.93,-2813,11432,-11298,194,271,167,244,-77,-77,-232,-205
,89,2018/03/15 00:36:39.95,-2866,11461,-11312,141,220,110,190,-79,-80,-180,-150
,90,2018/03/15 00:36:39.97,-2852,11430,-11318,100,185,80,171,-85,-91,-142,-125
,91,2018/03/15 00:36:39.99,-2784,11379,-11365,57,155,28,135,-98,-107,-106,-81
,92,2018/03/15 00:36:40.01,-2850,11410,-11317,3,119,3,127,-116,-124,-61,-65
,93,2018/03/15 00:36:40.03,-2847,11341,-11266,-16,114,-23,106,-130,-129,-49,-41
,94,2018/03/15 00:36:40.05,-2771,11368,-11298,-20,103,-31,86,-123,-117,-41,-27
,95,2018/03/15 00:36:40.07,-2802,11411,-11299,-34,85,-46,71,-119,-117,-25,-12
,96,2018/03/15 00:36:40.09,-2861,11409,-11315,-44,73,-44,72,-117,-116,-14,-14
,97,2018/03/15 00:36:40.11,-2791,11429,-11308,-52,59,-39,73,-111,-112,-3,-17
,98,2018/03/15 00:36:40.13,-2778,11483,-11309,-38,70,-30,78,-108,-108,-16,-24
,99,2018/03/15 00:36:40.15,-2795,11438,-11340,-22,91,-41,69,-113,-110,-34,-14
,100,2018/03/15 00:36:40.17,-2841,11435,-11380,-44,66,-39,64,-110,-103,-11,-12
,101,2018/03/15 00:36:40.19,-2807,11419,-11383,-51,47,-52,47,-98,-99,2,2
,102,2018/03/15 00:36:40.21,-2833,11348,-11422,-52,50,-42,66,-102,-108,1,-12
,103,2018/03/15 00:36:40.23,-2829,11367,-11171,-55,46,-59,33,-101,-92,4,13
,104,2018/03/15 00:36:40.25,-2797,11363,-11240,-60,32,-75,18,-92,-93,14,28
,105,2018/03/15 00:36:40.27,-2842,11446,-11361,-80,16,-87,6,-96,-93,32,40
,106,2018/03/15 00:36:40.29,-2719,11447,-11440,-83,4,-71,23,-87,-94,39,24
,107,2018/03/15 00:36:40.31,-2788,11511,-11325,-65,24,-53,36,-89,-89,20,8
,108,2018/03/15 00:36:40.33,-2809,11481,-11327,-54,34,-57,31,-88,-88,10,13
,109,2018/03/15 00:36:40.35,-2738,11388,-11304,-53,37,-63,32,-90,-95,8,15
,110,2018/03/15 00:36:40.37,-2738,11345,-11311,-62,44,-65,42,-106,-107,9,11
,111,2018/03/15 00:36:40.39,-2836,11328,-11343,-65,37,-56,41,-102,-97,14,7
,112,2018/03/15 00:36:40.41,-2777,11328,-11322,-72,13,-76,8,-85,-84,29,34
,113,2018/03/15 00:36:40.43,-2817,11333,-11388,-72,12,-64,20,-84,-84,30,22
,114,2018/03/15 00:36:40.45,-2797,11313,-11312,-58,31,-66,26,-89,-92,13,20
,115,2018/03/15 00:36:40.47,-2792,11350,-11244,-54,41,-50,46,-95,-96,6,2
,116,2018/03/15 00:36:40.49,-2817,11458,-11330,-57,32,-55,33,-89,-88,12,11
,117,2018/03/15 00:36:40.51,-2855,11392,-11340,-60,30,-50,44,-90,-94,15,3
,118,2018/03/15 00:36:40.53,-2830,11444,-11371,-42,50,-52,35,-92,-87,-4,8
,119,2018/03/15 00:36:40.55,-2826,11438,-11297,-46,36,-54,29,-82,-83,5,12
,120,2018/03/15 00:36:40.57,-2779,11437,-11358,-44,37,-41,41,-81,-82,3,0
,121,2018/03/15 00:36:40.59,-2804,11410,-11297,-49,31,-54,33,-80,-87,9,10
,122,2018/03/15 00:36:40.61,-2856,11417,-11370,-58,35,-58,41,-93,-99,11,8
,123,2018/03/15 00:36:40.63,-2875,11388,-11293,-57,50,-65,41,-107,-106,3,12
,124,2018/03/15 00:36:40.65,-2841,11374,-11361,-58,53,-67,45,-111,-112,2,11
,125,2018/03/15 00:36:40.67,-2819,11370,-11364,-73,43,-74,47,-116,-121,15,13
,126,2018/03/15 00:36:40.69,-2817,11344,-11407,-78,43,-63,59,-121,-122,17,2
,127,2018/03/15 00:36:40.71,-2705,11282,-11368,-64,60,-58,68,-124,-126,2,-5
,128,2018/03/15 00:36:40.73,-2777,11277,-11387,-42,84,-42,78,-126,-120,-21,-18
,129,2018/03/15 00:36:40.75,-2775,11272,-11436,-35,87,-40,88,-122,-128,-26,-24
,130,2018/03/15 00:36:40.77,-2783,11274,-11409,-36,95,-28,107,-131,-135,-29,-39
,131,2018/03/15 00:36:40.79,-2790,11304,-11363,-31,104,-20,117,-135,-137,-36,-48
,132,2018/03/15 00:36:40.81,-2797,11295,-11330,-25,110,-32,104,-135,-136,-42,-36
,133,2018/03/15 00:36:40.83,-2830,11362,-11423,-46,91,-70,63,-137,-133,-22,3
,134,2018/03/15 00:36:40.85,-2803,11304,-11442,-60,75,10,146,-135,-136,-7,-78
,135,2018/03/15 00:36:40.87,-2803,11209,-11413,61,199,50,197,-138,-147,-130,-123
,136,2018/03/15 00:36:40.89,-2761,11218,-11210,-6,152,-40,125,-158,-165,-73,-42
,137,2018/03/15 00:36:40.91,-2754,11305,-11316,-38,141,324,513,-179,-189,-51,-418
,138,2018/03/15 00:36:40.93,-2818,11357,-11410,1246,1390,1917,1774,-144,143,-1318,-1845
,139,2018/03/15 00:36:40.95,-2781,11371,-11450,1919,1782,1920,1787,137,133,-1850,-1853
,140,2018/03/15 00:36:40.97,-2677,11474,-11378,1904,1786,1916,1788,118,128,-1845,-1852
,141,2018/03/15 00:36:40.99,-2825,11549,-11366,1900,1785,1746,1765,115,-19,-1842,-1755
,142,2018/03/15 00:36:41.01,-2808,11402,-11382,1168,1469,701,822,-301,-121,-1318,-761
,143,2018/03/15 00:36:41.03,-2772,11374,-11338,463,383,293,133,80,160,-423,-213
,144,2018/03/15 00:36:41.05,-2762,11327,-11355,91,-68,-169,-272,159,103,-11,220
,145,2018/03/15 00:36:41.07,-2795,11338,-11404,-410,-440,-536,-527,30,-9,425,531
,146,2018/03/15 00:36:41.09,-2688,11310,-11369,-603,-575,-636,-590,-28,-46,589,613
,147,2018/03/15 00:36:41.11,-2724,11380,-11395,-667,-600,-694,-615,-67,-79,633,654
,148,2018/03/15 00:36:41.13,-2761,11315,-11359,-679,-597,-674,-607,-82,-67,638,640
,149,2018/03/15 00:36:41.15,-2725,11328,-11424,-654,-603,-627,-592,-51,-35,628,609
,150,2018/03/15 00:36:41.17,-2702,11306,-11451,-594,-584,-542,-561,-10,19,589,551
,151,2018/03/15 00:36:41.19,-2675,11333,-11450,-530,-568,-531,-568,38,37,549,549
,152,2018/03/15 00:36:41.21,-2683,11312,-11411,-526,-559,-530,-563,33,33,542,546
,153,2018/03/15 00:36:41.23,-2746,11327,-11394,-512,-546,-505,-546,34,41,529,525
,154,2018/03/15 00:36:41.25,-2748,11354,-11428,-490,-536,-484,-532,46,48,513,508
,155,2018/03/15 00:36:41.27,-2692,11354,-11422,-480,-538,-441,-507,58,66,509,474
,156,2018/03/15 00:36:41.29,-2659,11336,-11462,-421,-492,-412,-490,71,78,456,451
,157,2018/03/15 00:36:41.31,-2822,11315,-11479,-410,-490,-417,-499,80,82,450,458
,158,2018/03/15 00:36:41.33,-2712,11301,-11428,-392,-470,-369,-446,78,77,431,407
,159,2018/03/15 00:36:41.35,-2711,11310,-11434,-356,-427,-348,-408,71,60,391,378
,160,2018/03/15 00:36:41.37,-2778,11321,-11495,-341,-394,-312,-354,53,42,367,333
,161,2018/03/15 00:36:41.39,-2737,11252,-11431,-281,-322,-277,-310,41,33,301,293
,162,2018/03/15 00:36:41.41,-2690,11246,-11420,-275,-299,-305,-318,24,13,287,311
,163,2018/03/15 00:36:41.43,-2746,11285,-11479,-306,-310,-321,-320,4,-1,308,320
,164,2018/03/15 00:36:41.45,-2848,11222,-11433,-332,-321,-330,-312,-11,-18,326,321
,165,2018/03/15 00:36:41.47,-2803,11265,-11497,-333,-306,-317,-277,-27,-40,319,297
,166,2018/03/15 00:36:41.49,-2822,11292,-11545,-307,-252,-307,-242,-55,-65,279,274
,167,2018/03/15 00:36:41.51,-2796,11280,-11509,-295,-223,-305,-233,-72,-72,259,269
,168,2018/03/15 00:36:41.53,-2806,11252,-11390,-294,-219,-284,-217,-75,-67,256,250
,169,2018/03/15 00:36:41.55,-2816,11266,-11387,-290,-228,-292,-226,-62,-66,259,259
,170,2018/03/15 00:36:41.57,-2864,11301,-11385,-301,-234,-275,-210,-67,-65,267,242
,171,2018/03/15 00:36:41.59,-2792,11354,-11570,-252,-194,-242,-186,-58,-56,223,214
,172,2018/03/15 00:36:41.61,-2731,11346,-11428,-221,-161,-222,-160,-60,-62,191,191
,173,2018/03/15 00:36:41.63,-2840,11336,-11450,-206,-143,-183,-117,-63,-66,174,150
,174,2018/03/15 00:36:41.65,-2766,11274,-11461,-171,-104,-154,-86,-67,-68,137,120
,175,2018/03/15 00:36:41.67,-2814,11251,-11465,-162,-100,-156,-93,-62,-63,131,124
,176,2018/03/15 00:36:41.69,-2877,11179,-11386,-139,-70,-137,-69,-69,-68,104,103
,177,2018/03/15 00:36:41.71,-2861,11233,-11418,-122,-51,-122,-53,-71,-69,86,87
,178,2018/03/15 00:36:41.73,-2867,11227,-11526,-124,-51,-133,-51,-73,-82,87,92
,179,2018/03/15 00:36:41.75,-2817,11282,-11452,-150,-66,-137,-45,-84,-92,108,91
,180,2018/03/15 00:36:41.77,-2700,11265,-11445,-141,-49,-130,-40,-92,-90,95,85
,181,2018/03/15 00:36:41.79,-2746,11263,-11435,-112,-19,-111,-26,-93,-85,65,68
,182,2018/03/15 00:36:41.81,-2833,11245,-11431,-106,-18,-113,-33,-88,-80,62,73
,183,2018/03/15 00:36:41.83,-2789,11201,-11465,-124,-44,-122,-36,-80,-86,84,79
,184,2018/03/15 00:36:41.85,-2844,11220,-11464,-122,-35,-106,-11,-87,-95,78,58
,185,2018/03/15 00:36:41.87,-2802,11211,-11422,-110,-18,-107,-16,-92,-91,64,61
,186,2018/03/15 00:36:41.89,-2858,11233,-11377,-98,-8,-100,-8,-90,-92,53,54
,187,2018/03/15 00:36:41.91,-2727,11288,-11411,-76,24,-74,23,-100,-97,26,25
,188,2018/03/15 00:36:41.93,-2771,11319,-11448,-83,8,-95,-3,-91,-92,37,49
,189,2018/03/15 00:36:41.95,-2716,11340,-11456,-122,-29,-119,-22,-93,-97,75,70
,190,2018/03/15 00:36:41.97,-2711,11320,-11467,-120,-23,-116,-20,-97,-96,71,68
,191,2018/03/15 00:36:41.99,-2672,11344,-11519,-101,-5,-117,-21,-96,-96,53,69
,192,2018/03/15 00:36:42.01,-2625,11340,-11472,-118,-13,-115,-8,-105,-107,65,61
,193,2018/03/15 00:36:42.03,-2634,11363,-11501,-111,-9,-96,6,-102,-102,60,45
,194,2018/03/15 00:36:42.05,-2733,11312,-11470,-103,-4,-95,7,-99,-102,53,44
,195,2018/03/15 00:36:42.07,-2693,11259,-11481,-99,9,-110,4,-108,-114,45,53
,196,2018/03/15 00:36:42.09,-2688,11223,-11451,-110,10,-112,4,-120,-116,50,54
,197,2018/03/15 00:36:42.11,-2667,11224,-11424,-98,12,-99,7,-110,-106,43,46
,198,2018/03/15 00:36:42.13,-2759,11187,-11415,-112,-4,-101,4,-108,-105,58,48
,199,2018/03/15 00:36:42.15,-2719,11235,-11608,-95,3,-105,2,-98,-107,46,51
,200,2018/03/15 00:36:42.17,-2735,11188,-11495,-112,-5,-78,20,-107,-98,58,29
,201,2018/03/15 00:36:42.19,-2623,11273,-11373,6,104,61,168,-98,-107,-55,-114
,202,2018/03/15 00:36:42.21,-2681,11401,-11411,115,218,135,238,-103,-103,-166,-186
,203,2018/03/15 00:36:42.23,-2614,11392,-11477,136,237,140,243,-101,-103,-186,-191
,204,2018/03/15 00:36:42.25,-2708,11413,-11560,126,224,114,208,-98,-94,-175,-161
,205,2018/03/15 00:36:42.27,-2595,11470,-11481,103,203,76,177,-100,-101,-153,-126
,206,2018/03/15 00:36:42.29,-2665,11430,-11442,68,169,45,138,-101,-93,-118,-91
,207,2018/03/15 00:36:42.31,-2672,11430,-11425,29,122,10,111,-93,-101,-75,-60
,208,2018/03/15 00:36:42.33,-2693,11317,-11468,-19,86,-16,95,-105,-111,-33,-39
,209,2018/03/15 00:36:42.35,-2761,11211,-11420,-24,86,-18,92,-110,-110,-31,-37
,210,2018/03/15 00:36:42.37,-2732,11229,-11361,-5,105,-20,84,-110,-104,-50,-32
,211,2018/03/15 00:36:42.39,-2719,11234,-11423,-21,84,-39,62,-105,-101,-31,-11
,212,2018/03/15 00:36:42.41,-2738,11251,-11494,-53,45,-59,38,-98,-97,4,10
,213,2018/03/15 00:36:42.43,-2668,11311,-11445,-74,21,-70,34,-95,-104,26,18
,214,2018/03/15 00:36:42.45,-2631,11313,-11410,-72,36,-71,41,-108,-112,18,15
,215,2018/03/15 00:36:42.47,-2641,11332,-11457,-68,51,-93,29,-119,-122,8,32
,216,2018/03/15 00:36:42.49,-2655,11312,-11467,-95,34,-109,19,-129,-128,30,45
,217,2018/03/15 00:36:42.51,-2675,11325,-11498,-118,8,-109,13,-126,-122,55,48
,218,2018/03/15 00:36:42.53,-2637,11346,-11446,-111,3,-94,20,-114,-114,54,37
,219,2018/03/15 00:36:42.55,-2751,11312,-11444,-89,29,-87,37,-118,-124,30,25
,220,2018/03/15 00:36:42.57,-2734,11328,-11453,-85,43,-94,33,-128,-127,21,30
,221,2018/03/15 00:36:42.59,-2706,11313,-11432,-72,64,-66,80,-136,-146,4,-7
,222,2018/03/15 00:36:42.61,-2664,11333,-11435,-92,56,-89,54,-148,-143,18,17
,223,2018/03/15 00:36:42.63,-2651,11317,-11439,-107,32,-101,41,-139,-142,37,30
,224,2018/03/15 00:36:42.65,-2733,11299,-11478,-111,26,-121,13,-137,-134,42,54
,225,2018/03/15 00:36:42.67,-2686,11327,-11487,-110,23,-105,27,-133,-132,43,39
,226,2018/03/15 00:36:42.69,-2701,11321,-11427,-87,45,-88,46,-132,-134,21,21
,227,2018/03/15 00:36:42.71,-2590,11306,-11445,-103,34,-88,51,-137,-139,34,18
,228,2018/03/15 00:36:42.73,-2642,11270,-11419,-86,50,-71,67,-136,-138,18,2
,229,2018/03/15 00:36:42.75,-2671,11297,-11440,-63,76,-72,66,-139,-138,-6,3
,230,2018/03/15 00:36:42.77,-2685,11287,-11459,-70,70,-81,55,-140,-136,0,13
,231,2018/03/15 00:36:42.79,-2657,11267,-11376,-80,64,-83,63,-144,-146,8,10
,232,2018/03/15 00:36:42.81,-2617,11305,-11475,-82,52,-53,72,-134,-125,15,-9
,233,2018/03/15 00:36:42.83,-2710,11216,-11499,-48,72,-44,72,-120,-116,-12,-14
,234,2018/03/15 00:36:42.85,-2743,11276,-11445,-47,65,-70,30,-112,-100,-9,20
,235,2018/03/15 00:36:42.87,-2666,11261,-11345,-71,26,-76,22,-97,-98,22,27
,236,2018/03/15 00:36:42.89,-2671,11359,-11397,-68,41,-49,65,-109,-114,13,-8
,237,2018/03/15 00:36:42.91,-2698,11375,-11492,-45,64,-30,76,-109,-106,-9,-23
,238,2018/03/15 00:36:42.93,-2700,11417,-11457,-49,55,-59,51,-104,-110,-3,4
,239,2018/03/15 00:36:42.95,-2693,11480,-11430,-57,65,-64,59,-122,-123,-4,2
,240,2018/03/15 00:36:42.97,-2635,11445,-11379,-53,71,-63,62,-124,-125,-9,0
,241,2018/03/15 00:36:42.99,-2647,11366,-11417,-61,64,-55,76,-125,-131,-1,-10
,242,2018/03/15 00:36:43.01,-2732,11264,-11412,-61,74,-64,74,-135,-138,-6,-5
,243,2018/03/15 00:36:43.03,-2655,11256,-11400,-59,72,-57,72,-131,-129,-6,-7
,244,2018/03/15 00:36:43.05,-2746,11336,-11424,-44,89,-53,74,-133,-127,-22,-10
,245,2018/03/15 00:36:43.07,-2774,11385,-11430,-42,89,-49,85,-131,-134,-23,-18
,246,2018/03/15 00:36:43.09,-2720,11410,-11383,-58,80,-54,82,-138,-136,-11,-14
,247,2018/03/15 00:36:43.11,-2641,11309,-11335,-53,78,-29,105,-131,-134,-12,-38
,248,2018/03/15 00:36:43.13,-2703,11277,-11356,-18,107,-16,91,-125,-107,-44,-37
,249,2018/03/15 00:36:43.15,-2680,11287,-11452,-8,84,-27,61,-92,-88,-38,-17
,250,2018/03/15 00:36:43.17,-2647,11309,-11392,-25,71,-27,72,-96,-99,-23,-22
,251,2018/03/15 00:36:43.19,-2728,11299,-11446,-30,74,-26,85,-104,-111,-22,-29
,252,2018/03/15 00:36:43.21,-2740,11404,-11398,-40,77,-38,80,-117,-118,-18,-21
,253,2018/03/15 00:36:43.23,-2760,11430,-11376,-40,75,-46,77,-115,-123,-17,-15
,254,2018/03/15 00:36:43.25,-2678,11421,-11335,-28,102,-37,87,-130,-124,-37,-25
,255,2018/03/15 00:36:43.27,-2708,11401,-11321,-35,90,-40,97,-125,-137,-27,-28
,256,2018/03/15 00:36:43.29,-2703,11400,-11345,-59,88,-61,92,-147,-153,-14,-15
,257,2018/03/15 00:36:43.31,-2728,11413,-11401,-72,71,-68,61,-143,-129,0,3
,258,2018/03/15 00:36:43.33,-2659,11414,-11426,-64,63,-56,67,-127,-123,0,-5
,259,2018/03/15 00:36:43.35,-2738,11399,-11391,-40,86,-44,90,-126,-134,-23,-23
,260,2018/03/15 00:36:43.37,-2615,11360,-11371,-41,100,-32,106,-141,-138,-29,-37
,261,2018/03/15 00:36:43.39,-2584,11354,-11390,-32,98,-10,114,-130,-124,-33,-52
,262,2018/03/15 00:36:43.41,-2732,11357,-11476,-13,111,-4,122,-124,-126,-49,-59
,263,2018/03/15 00:36:43.43,-2712,11233,-11446,-10,122,-6,124,-132,-130,-56,-59
,264,2018/03/15 00:36:43.45,-2677,11359,-11411,0,132,-7,128,-132,-135,-66,-60
,265,2018/03/15 00:36:43.47,-2708,11403,-11394,-16,125,-18,122,-141,-140,-54,-52
,266,2018/03/15 00:36:43.49,-2791,11450,-11386,-34,96,-25,107,-130,-132,-31,-41
,267,2018/03/15 00:36:43.51,-2723,11374,-11462,-38,98,-45,101,-136,-146,-30,-28
,268,2018/03/15 00:36:43.53,-2738,11409,-11304,-44,108,-51,100,-152,-151,-32,-24
,269,2018/03/15 00:36:43.55,-2684,11399,-11305,-41,110,-41,103,-151,-144,-34,-31
,270,2018/03/15 00:36:43.57,-2696,11389,-11376,-38,102,-35,103,-140,-138,-32,-34
,271,2018/03/15 00:36:43.59,-2744,11421,-11371,-41,92,-34,106,-133,-140,-25,-36
,272,2018/03/15 00:36:43.61,-2633,11510,-11346,-43,96,-52,84,-139,-136,-26,-16
,273,2018/03/15 00:36:43.63,-2685,11459,-11356,-47,86,-59,72,-133,-131,-19,-6
,274,2018/03/15 00:36:43.65,-2678,11427,-11352,-52,85,-49,93,-137,-142,-16,-22
,275,2018/03/15 00:36:43.67,-2750,11417,-11393,-48,93,-42,94,-141,-136,-22,-26
,276,2018/03/15 00:36:43.69,-2746,11303,-11405,-56,76,-63,71,-132,-134,-10,-4
,277,2018/03/15 00:36:43.71,-2741,11319,-11334,-74,67,-88,56,-141,-144,3,16
,278,2018/03/15 00:36:43.73,-2702,11394,-11368,-71,71,-20,116,-142,-136,0,-48
,279,2018/03/15 00:36:43.75,-2730,11368,-11324,43,177,49,172,-134,-123,-110,-110
,280,2018/03/15 00:36:43.77,-2696,11351,-11334,13,118,-14,80,-105,-94,-65,-33
,281,2018/03/15 00:36:43.79,-2761,11376,-11377,-36,54,-31,65,-90,-96,-9,-17
,282,2018/03/15 00:36:43.81,-2716,11336,-11385,-16,86,-16,96,-102,-112,-35,-40
,283,2018/03/15 00:36:43.83,-2728,11369,-11367,8,123,-10,105,-115,-115,-65,-47
,284,2018/03/15 00:36:43.85,-2718,11370,-11386,10,136,19,148,-126,-129,-73,-83
,285,2018/03/15 00:36:43.87,-2696,11432,-11389,10,136,-2,120,-126,-122,-73,-59
,286,2018/03/15 00:36:43.89,-2679,11408,-11453,-26,98,-36,98,-124,-134,-36,-31
,287,2018/03/15 00:36:43.91,-2798,11421,-11384,-48,90,-67,63,-138,-130,-21,2
,288,2018/03/15 00:36:43.93,-2786,11422,-11428,-64,62,-78,42,-126,-120,1,18
,289,2018/03/15 00:36:43.95,-2657,11359,-11348,-82,43,-81,50,-125,-131,19,15
,290,2018/03/15 00:36:43.97,-2777,11400,-11353,-94,37,-88,48,-131,-136,28,20
,291,2018/03/15 00:36:43.99,-2596,11453,-11375,-82,53,-73,56,-135,-129,14,8
,292,2018/03/15 00:36:44.01,-2661,11441,-11392,-74,53,-77,44,-127,-121,10,16
,293,2018/03/15 00:36:44.03,-2639,11458,-11366,-64,54,-74,40,-118,-114,5,17
,294,2018/03/15 00:36:44.05,-2689,11416,-11379,-79,40,-79,47,-119,-126,19,16
,295,2018/03/15 00:36:44.07,-2581,11410,-11352,-82,43,-75,52,-125,-127,19,11
,296,2018/03/15 00:36:44.09,-2649,11371,-11364,-84,39,-78,44,-123,-122,22,17
,297,2018/03/15 00:36:44.11,-2681,11325,-11353,-64,60,-72,53,-124,-125,2,9
,298,2018/03/15 00:36:44.13,-2666,11412,-11353,-57,70,-65,56,-127,-121,-6,4
,299,2018/03/15 00:36:44.15,-2712,11421,-11334,-67,54,-56,66,-121,-122,6,-5
,300,2018/03/15 00:36:44.17,-2721,11447,-11436,-59,57,-52,72,-116,-124,1,-10
,301,2018/03/15 00:36:44.19,-2795,11405,-11457,-57,74,-56,75,-131,-131,-8,-9
,302,2018/03/15 00:36:44.21,-2776,11356,-11298,-45,85,-49,72,-130,-121,-20,-11
,303,2018/03/15 00:36:44.23,-2834,11313,-11222,-56,67,-55,68,-123,-123,-5,-6
,304,2018/03/15 00:36:44.25,-2725,11353,-11327,-59,67,-38,92,-126,-130,-4,-27
,305,2018/03/15 00:36:44.27,-2706,11395,-11433,-50,78,-48,89,-128,-137,-14,-20
,306,2018/03/15 00:36:44.29,-2732,11444,-11465,-50,88,-56,86,-138,-142,-19,-15
,307,2018/03/15 00:36:44.31,-2727,11514,-11370,-56,87,-69,71,-143,-140,-15,-1
,308,2018/03/15 00:36:44.33,-2730,11433,-11387,-64,80,-60,84,-144,-144,-8,-12
,309,2018/03/15 00:36:44.35,-2734,11310,-11359,-70,69,-70,76,-139,-146,0,-3
,310,2018/03/15 00:36:44.37,-2805,11153,-11366,-76,74,-46,108,-150,-154,1,-31
,311,2018/03/15 00:36:44.39,-2770,11285,-11354,78,234,319,460,-156,-141,-156,-389
,312,2018/03/15 00:36:44.41,-2788,11362,-11379,1029,1156,1882,1769,-127,113,-1092,-1825
,313,2018/03/15 00:36:44.43,-2795,11338,-11396,1918,1779,1918,1782,139,136,-1848,-1850
,314,2018/03/15 00:36:44.45,-2787,11507,-11409,1874,1768,1677,1723,106,-46,-1821,-1700
,315,2018/03/15 00:36:44.47,-2696,11404,-11369,1310,1521,1059,1202,-211,-143,-1415,-1130
,316,2018/03/15 00:36:44.49,-2721,11385,-11363,855,923,646,705,-68,-59,-889,-675
,317,2018/03/15 00:36:44.51,-2787,11415,-11396,465,560,297,428,-95,-131,-512,-362
,318,2018/03/15 00:36:44.53,-2752,11355,-11380,174,336,75,258,-162,-183,-255,-166
,319,2018/03/15 00:36:44.55,-2734,11397,-11425,-25,173,-85,136,-198,-221,-74,-25
,320,2018/03/15 00:36:44.57,-2746,11407,-11439,-141,94,-172,58,-235,-230,23,57
,321,2018/03/15 00:36:44.59,-2675,11296,-11407,-199,3,-240,-72,-202,-168,98,156
,322,2018/03/15 00:36:44.61,-2723,11299,-11409,-252,-110,-274,-155,-142,-119,181,214
,323,2018/03/15 00:36:44.63,-2625,11336,-11381,-280,-177,-289,-197,-103,-92,228,243
,324,2018/03/15 00:36:44.65,-2614,11293,-11437,-298,-222,-301,-243,-76,-58,260,272
,325,2018/03/15 00:36:44.67,-2679,11340,-11451,-317,-269,-338,-289,-48,-49,293,313
,326,2018/03/15 00:36:44.69,-2663,11346,-11475,-344,-285,-370,-306,-59,-64,314,338
,327,2018/03/15 00:36:44.71,-2587,11338,-11455,-386,-310,-400,-320,-76,-80,348,360
,328,2018/03/15 00:36:44.73,-2644,11260,-11448,-384,-303,-356,-279,-81,-77,343,317
,329,2018/03/15 00:36:44.75,-2598,11240,-11483,-355,-282,-343,-266,-73,-77,318,304
,330,2018/03/15 00:36:44.77,-2670,11256,-11459,-342,-264,-341,-263,-78,-78,303,302
,331,2018/03/15 00:36:44.79,-2632,11302,-11374,-326,-248,-320,-249,-78,-71,287,284
,332,2018/03/15 00:36:44.81,-2646,11345,-11374,-303,-232,-302,-227,-71,-75,267,264
,333,2018/03/15 00:36:44.83,-2650,11362,-11492,-297,-222,-275,-200,-75,-75,259,237
,334,2018/03/15 00:36:44.85,-2658,11361,-11483,-277,-201,-264,-188,-76,-76,239,226
,335,2018/03/15 00:36:44.87,-2686,11368,-11359,-263,-189,-272,-203,-74,-69,226,237
,336,2018/03/15 00:36:44.89,-2701,11340,-11278,-272,-202,-267,-197,-70,-70,237,232
,337,2018/03/15 00:36:44.91,-2627,11372,-11415,-231,-162,-207,-138,-69,-69,196,172
,338,2018/03/15 00:36:44.93,-2693,11444,-11427,-204,-136,-197,-124,-68,-73,170,160
,339,2018/03/15 00:36:44.95,-2696,11398,-11396,-208,-131,-208,-128,-77,-80,169,168
,340,2018/03/15 00:36:44.97,-2635,11397,-11410,-210,-130,-208,-131,-80,-77,170,169
,341,2018/03/15 00:36:44.99,-2642,11361,-11355,-182,-106,-176,-105,-76,-71,144,140
,342,2018/03/15 00:36:45.01,-2676,11320,-11377,-168,-96,-163,-91,-72,-72,132,127
,343,2018/03/15 00:36:45.03,-2684,11291,-11433,-162,-91,-145,-73,-71,-72,126,109
,344,2018/03/15 00:36:45.05,-2707,11311,-11451,-160,-81,-162,-79,-79,-83,120,120
,345,2018/03/15 00:36:45.07,-2736,11347,-11479,-169,-85,-153,-73,-84,-80,127,113
,346,2018/03/15 00:36:45.09,-2721,11418,-11412,-133,-52,-138,-59,-81,-79,92,98
,347,2018/03/15 00:36:45.11,-2701,11349,-11358,-133,-54,-131,-49,-79,-82,93,90
,348,2018/03/15 00:36:45.13,-2719,11325,-11412,-149,-63,-136,-54,-86,-82,106,95
,349,2018/03/15 00:36:45.15,-2702,11289,-11452,-138,-53,-123,-30,-85,-93,95,76
,350,2018/03/15 00:36:45.17,-2678,11315,-11443,-110,-21,-123,-39,-89,-84,65,81
,351,2018/03/15 00:36:45.19,-2719,11309,-11433,-114,-31,-114,-33,-83,-81,72,73
,352,2018/03/15 00:36:45.21,-2757,11414,-11402,-114,-33,-107,-24,-81,-83,73,65
,353,2018/03/15 00:36:45.23,-2768,11406,-11393,-106,-23,-83,1,-83,-84,64,41
,354,2018/03/15 00:36:45.25,-2761,11388,-11426,-77,3,-76,6,-80,-82,37,35
,355,2018/03/15 00:36:45.27,-2709,11312,-11441,-71,19,-80,9,-90,-89,26,35
,356,2018/03/15 00:36:45.29,-2779,11311,-11458,-70,15,-62,18,-85,-80,27,22
,357,2018/03/15 00:36:45.31,-2678,11269,-11415,-59,23,-60,29,-82,-89,18,15
,358,2018/03/15 00:36:45.33,-2684,11299,-11439,-78,7,-70,13,-85,-83,35,28
,359,2018/03/15 00:36:45.35,-2660,11307,-11448,-63,26,-61,36,-89,-97,18,12
,360,2018/03/15 00:36:45.37,-2688,11281,-11415,-54,46,-67,29,-100,-96,4,19
,361,2018/03/15 00:36:45.39,-2713,11378,-11401,-62,36,-66,32,-98,-98,13,17
,362,2018/03/15 00:36:45.41,-2695,11313,-11414,-80,17,-64,34,-97,-98,31,15
,363,2018/03/15 00:36:45.43,-2703,11355,-11414,-67,35,-63,46,-102,-109,16,8
,364,2018/03/15 00:36:45.45,-2715,11348,-11429,-53,53,-66,39,-106,-105,0,13
,365,2018/03/15 00:36:45.47,-2703,11329,-11362,-68,44,-89,17,-112,-106,12,36
,366,2018/03/15 00:36:45.49,-2703,11346,-11511,-70,39,-73,31,-109,-104,15,21
,367,2018/03/15 00:36:45.51,-2749,11342,-11468,-83,17,-84,19,-100,-103,33,32
,368,2018/03/15 00:36:45.53,-2719,11308,-11428,-86,18,-73,33,-104,-106,34,20
,369,2018/03/15 00:36:45.55,-2795,11279,-11355,-64,44,-59,42,-108,-101,10,8
,370,2018/03/15 00:36:45.57,-2721,11355,-11457,-48,54,-58,42,-102,-100,-3,8
,371,2018/03/15 00:36:45.59,-2718,11326,-11499,-52,47,-56,45,-99,-101,2,5
,372,2018/03/15 00:36:45.61,-2686,11400,-11445,-63,37,-58,43,-100,-101,13,7
,373,2018/03/15 00:36:45.63,-2658,11312,-11359,-72,38,-80,41,-110,-121,17,19
,374,2018/03/15 00:36:45.65,-2671,11315,-11347,-76,34,-44,54,-110,-98,21,-5
,375,2018/03/15 00:36:45.67,-2635,11246,-11382,25,130,78,178,-105,-100,-77,-128
,376,2018/03/15 00:36:45.69,-2747,11273,-11451,115,223,208,329,-108,-121,-169,-268
,377,2018/03/15 00:36:45.71,-2719,11385,-11397,250,340,157,216,-90,-59,-295,-186
,378,2018/03/15 00:36:45.73,-2708,11347,-11414,90,138,121,179,-48,-58,-114,-150
,379,2018/03/15 00:36:45.75,-2697,11407,-11427,203,284,244,336,-81,-92,-243,-290
,380,2018/03/15 00:36:45.77,-2736,11376,-11399,273,383,268,388,-110,-120,-328,-328
,381,2018/03/15 00:36:45.79,-2656,11388,-11378,245,365,220,343,-120,-123,-305,-281
,382,2018/03/15 00:36:45.81,-2690,11316,-11420,179,303,166,302,-124,-136,-241,-234
,383,2018/03/15 00:36:45.83,-2676,11321,-11507,146,288,127,270,-142,-143,-217,-198
,384,2018/03/15 00:36:45.85,-2612,11308,-11453,114,258,96,235,-144,-139,-186,-165
,385,2018/03/15 00:36:45.87,-2668,11336,-11443,77,222,68,210,-145,-142,-149,-139
,386,2018/03/15 00:36:45.89,-2625,11359,-11468,45,178,34,168,-133,-134,-111,-101
,387,2018/03/15 00:36:45.91,-2653,11377,-11457,-7,122,-27,104,-129,-131,-57,-38
,388,2018/03/15 00:36:45.93,-2671,11304,-11452,-46,81,-63,61,-127,-124,-17,1
,389,2018/03/15 00:36:45.95,-2705,11272,-11405,-67,57,-90,30,-124,-120,5,30
,390,2018/03/15 00:36:45.97,-2615,11303,-11434,-97,22,-96,23,-119,-119,37,36
,391,2018/03/15 00:36:45.99,-2616,11301,-11424,-98,22,-97,31,-120,-128,38,33
,392,2018/03/15 00:36:46.01,-2648,11308,-11499,-100,38,-85,70,-138,-155,31,7
,393,2018/03/15 00:36:46.03,-2523,11338,-11434,-90,77,-89,80,-167,-169,6,4
,394,2018/03/15 00:36:46.05,-2617,11350,-11419,-61,107,-66,92,-168,-158,-23,-13
,395,2018/03/15 00:36:46.07,-2617,11327,-11459,-86,70,-109,49,-156,-158,8,30
,396,2018/03/15 00:36:46.09,-2565,11379,-11411,-121,40,-129,36,-161,-165,40,46
,397,2018/03/15 00:36:46.11,-2715,11331,-11456,-158,5,-159,4,-163,-163,76,77
,398,2018/03/15 00:36:46.13,-2658,11380,-11407,-147,6,-151,-12,-153,-139,70,81
,399,2018/03/15 00:36:46.15,-2735,11365,-11435,-149,-16,-159,-39,-133,-120,82,99
,400,2018/03/15 00:36:46.17,-2645,11325,-11517,-156,-48,-149,-51,-108,-98,102,100
,401,2018/03/15 00:36:46.19,-2729,11338,-11335,-143,-52,-127,-39,-91,-88,97,83
,402,2018/03/15 00:36:46.21,-2657,11341,-11316,-133,-60,-133,-79,-73,-54,96,106
,403,2018/03/15 00:36:46.23,-2676,11386,-11442,-130,-81,-121,-68,-49,-53,105,94
,404,2018/03/15 00:36:46.25,-2630,11354,-11504,-96,-32,-104,-39,-64,-65,64,71
,405,2018/03/15 00:36:46.27,-2637,11364,-11382,-115,-45,-136,-65,-70,-71,80,100
,406,2018/03/15 00:36:46.29,-2705,11427,-11424,-148,-79,-149,-81,-69,-68,113,115
,407,2018/03/15 00:36:46.31,-2709,11341,-11381,-148,-77,-128,-56,-71,-72,112,92
,408,2018/03/15 00:36:46.33,-2778,11360,-11410,-104,-30,-100,-29,-74,-71,67,64
,409,2018/03/15 00:36:46.35,-2657,11253,-11373,-97,-23,-100,-30,-74,-70,60,65
,410,2018/03/15 00:36:46.37,-2733,11342,-11361,-92,-21,-72,1,-71,-73,56,35
,411,2018/03/15 00:36:46.39,-2691,11357,-11348,-71,0,-61,10,-71,-71,35,25
,412,2018/03/15 00:36:46.41,-2770,11381,-11371,-71,4,-81,-3,-75,-78,33,42
,413,2018/03/15 00:36:46.43,-2714,11352,-11358,-68,13,-65,16,-81,-81,27,24
,414,2018/03/15 00:36:46.45,-2654,11330,-11376,-58,29,-65,23,-87,-88,14,21
,415,2018/03/15 00:36:46.47,-2654,11287,-11452,-62,23,-48,31,-85,-79,19,8
,416,2018/03/15 00:36:46.49,-2673,11289,-11431,-67,9,-75,5,-76,-80,29,35
,417,2018/03/15 00:36:46.51,-2734,11325,-11377,-82,0,-81,-1,-82,-80,41,41
,418,2018/03/15 00:36:46.53,-2674,11381,-11452,-64,19,-78,9,-83,-87,22,34
,419,2018/03/15 00:36:46.55,-2762,11350,-11447,-82,10,-79,8,-92,-87,36,35
,420,2018/03/15 00:36:46.57,-2744,11363,-11449,-71,14,-53,35,-85,-88,28,9
,421,2018/03/15 00:36:46.59,-2725,11342,-11365,-55,31,-57,31,-86,-88,12,13
,422,2018/03/15 00:36:46.61,-2742,11394,-11362,-70,24,-77,20,-94,-97,23,28
,423,2018/03/15 00:36:46.63,-2763,11384,-11394,-61,33,-54,33,-94,-87,14,10
,424,2018/03/15 00:36:46.65,-2709,11318,-11417,-44,43,-43,45,-87,-88,0,-1
,425,2018/03/15 00:36:46.67,-2676,11344,-11401,-48,36,-26,61,-84,-87,6,-17
,426,2018/03/15 00:36:46.69,-2679,11364,-11438,-38,47,-32,55,-85,-87,-4,-11
,427,2018/03/15 00:36:46.71,-2688,11319,-11431,-25,60,-11,75,-85,-86,-17,-32
,428,2018/03/15 00:36:46.73,-2713,11323,-11371,-2,89,-28,70,-91,-98,-43,-21
,429,2018/03/15 00:36:46.75,-2756,11316,-11443,-25,75,-26,74,-100,-100,-25,-24
,430,2018/03/15 00:36:46.77,-2710,11348,-11417,-47,58,-32,75,-105,-107,-5,-21
,431,2018/03/15 00:36:46.79,-2692,11323,-11401,-38,68,-36,74,-106,-110,-15,-19
,432,2018/03/15 00:36:46.81,-2712,11426,-11405,-27,83,-32,69,-110,-101,-28,-18
,433,2018/03/15 00:36:46.83,-2737,11376,-11418,-24,72,-35,60,-96,-95,-24,-12
,434,2018/03/15 00:36:46.85,-2735,11289,-11477,-47,48,-44,48,-95,-92,0,-2
,435,2018/03/15 00:36:46.87,-2753,11337,-11282,-52,36,-46,47,-88,-93,8,0
,436,2018/03/15 00:36:46.89,-2720,11341,-11312,-61,43,-60,44,-104,-104,9,8
,437,2018/03/15 00:36:46.91,-2686,11417,-11446,-45,55,-44,50,-100,-94,-5,-3
,438,2018/03/15 00:36:46.93,-2709,11464,-11455,-28,68,-24,72,-96,-96,-20,-24
,439,2018/03/15 00:36:46.95,-2628,11471,-11411,-19,77,-9,88,-96,-97,-29,-39
,440,2018/03/15 00:36:46.97,-2678,11466,-11366,-23,75,-19,83,-98,-102,-26,-32
,441,2018/03/15 00:36:46.99,-2743,11414,-11347,-26,73,-29,64,-99,-93,-23,-17
,442,2018/03/15 00:36:47.01,-2785,11357,-11381,-22,72,-36,55,-94,-91,-25,-9
,443,2018/03/15 00:36:47.03,-2699,11293,-11344,-38,58,-40,58,-96,-98,-10,-9
,444,2018/03/15 00:36:47.05,-2694,11319,-11390,-40,57,-33,68,-97,-101,-8,-17
,445,2018/03/15 00:36:47.07,-2715,11388,-11359,-49,51,-47,52,-100,-99,-1,-2
,446,2018/03/15 00:36:47.09,-2714,11410,-11360,-28,67,-28,67,-95,-95,-19,-19
,447,2018/03/15 00:36:47.11,-2778,11391,-11347,-14,84,-32,55,-98,-87,-35,-11
,448,2018/03/15 00:36:47.13,-2730,11380,-11384,-34,58,-43,58,-92,-101,-12,-7
,449,2018/03/15 00:36:47.15,-2729,11324,-11426,-44,63,-27,84,-107,-111,-9,-28
,450,2018/03/15 00:36:47.17,-2707,11358,-11397,-18,87,-4,98,-105,-102,-34,-47
,451,2018/03/15 00:36:47.19,-2705,11361,-11399,-21,83,-45,58,-104,-103,-31,-6
,452,2018/03/15 00:36:47.21,-2701,11401,-11338,-45,63,-55,50,-108,-105,-9,2
,453,2018/03/15 00:36:47.23,-2753,11445,-11390,-34,70,-20,88,-104,-108,-18,-34
,454,2018/03/15 00:36:47.25,-2707,11425,-11407,-26,85,-22,92,-111,-114,-29,-35
,455,2018/03/15 00:36:47.27,-2712,11396,-11379,-40,67,-45,64,-107,-109,-13,-9
,456,2018/03/15 00:36:47.29,-2635,11421,-11318,-38,75,-37,74,-113,-111,-18,-18
,457,2018/03/15 00:36:47.31,-2751,11413,-11388,-34,78,-52,60,-112,-112,-22,-4
,458,2018/03/15 00:36:47.33,-2683,11372,-11399,-56,59,-51,62,-115,-113,-1,-5
,459,2018/03/15 00:36:47.35,-2643,11329,-11363,-58,56,-50,74,-114,-124,1,-12
,460,2018/03/15 00:36:47.37,-2749,11347,-11407,-62,69,-69,69,-131,-138,-3,0
,461,2018/03/15 00:36:47.39,-2640,11363,-11367,-73,71,-81,62,-144,-143,1,9
,462,2018/03/15 00:36:47.41,-2663,11403,-11367,-74,73,-80,64,-147,-144,0,8
,463,2018/03/15 00:36:47.43,-2674,11390,-11337,-76,68,-68,77,-144,-145,4,-4
,464,2018/03/15 00:36:47.45,-2676,11338,-11410,-80,63,-73,72,-143,-145,8,0
,465,2018/03/15 00:36:47.47,-2659,11339,-11303,-74,70,-70,73,-144,-143,2,-1
,466,2018/03/15 00:36:47.49,-2727,11347,-11319,-57,83,-54,80,-140,-134,-13,-13
,467,2018/03/15 00:36:47.51,-2762,11351,-11380,-60,76,-72,64,-136,-136,-8,4
,468,2018/03/15 00:36:47.53,-2802,11343,-11366,-76,51,-70,69,-127,-139,12,0
,469,2018/03/15 00:36:47.55,-2760,11337,-11388,-84,60,-80,65,-144,-145,12,7
,470,2018/03/15 00:36:47.57,-2690,11368,-11224,-61,75,-48,80,-136,-128,-7,-16
,471,2018/03/15 00:36:47.59,-2772,11359,-11225,-31,92,-39,82,-123,-121,-30,-21
,472,2018/03/15 00:36:47.61,-2655,11439,-11393,-39,89,-46,82,-128,-128,-25,-18
,473,2018/03/15 00:36:47.63,-2705,11473,-11408,-48,79,-36,94,-127,-130,-15,-29
,474,2018/03/15 00:36:47.65,-2671,11458,-11370,-46,75,-36,83,-121,-119,-14,-23
,475,2018/03/15 00:36:47.67,-2741,11397,-11325,-33,87,-33,79,-120,-112,-27,-23
,476,2018/03/15 00:36:47.69,-2703,11146,-11372,-22,91,-32,74,-113,-106,-34,-21
,477,2018/03/15 00:36:47.71,-2656,11128,-11373,-22,82,-15,89,-104,-104,-30,-37
,478,2018/03/15 00:36:47.73,-2668,11313,-11350,-19,84,-19,88,-103,-107,-32,-34
,479,2018/03/15 00:36:47.75,-2605,11541,-11359,-35,72,-23,87,-107,-110,-18,-32
,480,2018/03/15 00:36:47.77,-2561,11588,-11402,-10,103,-22,92,-113,-114,-46,-35
,481,2018/03/15 00:36:47.79,-2510,11615,-11322,-26,93,-31,86,-119,-117,-33,-27
,482,2018/03/15 00:36:47.81,-2510,11613,-11314,-18,93,-11,99,-111,-110,-37,-44
,483,2018/03/15 00:36:47.83,-2507,11647,-11322,-16,96,-4,109,-112,-113,-40,-52
,484,2018/03/15 00:36:47.85,-2447,11613,-11327,-3,102,-5,98,-105,-103,-49,-46
,485,2018/03/15 00:36:47.87,-2549,11636,-11333,-13,97,-25,88,-110,-113,-42,-31
,486,2018/03/15 00:36:47.89,-2447,11549,-11348,-19,100,-25,92,-119,-117,-40,-33
,487,2018/03/15 00:36:47.91,-2487,11488,-11318,-11,104,-4,103,-115,-107,-46,-49
,488,2018/03/15 00:36:47.93,-2580,11487,-11317,-16,87,-21,81,-103,-102,-35,-30
,489,2018/03/15 00:36:47.95,-2596,11457,-11286,-39,72,-46,64,-111,-110,-16,-9
,490,2018/03/15 00:36:47.97,-2560,11429,-11283,-42,58,-40,48,-100,-88,-8,-4
,491,2018/03/15 00:36:47.99,-2525,11483,-11359,-25,57,-24,50,-82,-74,-16,-13
,492,2018/03/15 00:36:48.01,-2557,11475,-11394,-24,45,-11,54,-69,-65,-10,-21
,493,2018/03/15 00:36:48.03,-2476,11521,-11424,-8,48,-1,54,-56,-55,-20,-26
,494,2018/03/15 00:36:48.05,-2505,11447,-11355,-10,46,-12,48,-56,-60,-18,-18
,495,2018/03/15 00:36:48.07,-2380,11417,-11354,0,63,-15,48,-63,-63,-31,-16
,496,2018/03/15 00:36:48.09,-2487,11409,-11395,-14,57,-23,57,-71,-80,-21,-17
,497,2018/03/15 00:36:48.11,-2451,11397,-11394,-25,63,-19,74,-88,-93,-19,-27
,498,2018/03/15 00:36:48.13,-2456,11453,-11315,-20,68,-11,73,-88,-84,-24,-31
,499,2018/03/15 00:36:48.15,-2437,11465,-11385,-21,64,-34,60,-85,-94,-21,-13
,500,2018/03/15 00:36:48.17,-2448,11408,-11359,-28,70,-39,62,-98,-101,-21,-11
,501,2018/03/15 00:36:48.19,-2459,11410,-11446,-38,70,-35,71,-108,-106,-16,-18
,502,2018/03/15 00:36:48.21,-2560,11433,-11368,-30,70,-22,75,-100,-97,-20,-26
,503,2018/03/15 00:36:48.23,-2508,11468,-11436,-30,60,-25,67,-90,-92,-15,-21
,504,2018/03/15 00:36:48.25,-2478,11480,-11424,-29,65,-35,57,-94,-92,-18,-11
,505,2018/03/15 00:36:48.27,-2509,11464,-11219,-27,64,-30,57,-91,-87,-18,-13
,506,2018/03/15 00:36:48.29,-2505,11432,-11326,-27,65,-35,71,-92,-106,-19,-18
,507,2018/03/15 00:36:48.31,-2472,11414,-11451,-48,66,-32,83,-114,-115,-9,-25
,508,2018/03/15 00:36:48.33,-2500,11405,-11467,-50,54,-48,49,-104,-97,-2,0
,509,2018/03/15 00:36:48.35,-2442,11416,-11343,-45,45,-32,65,-90,-97,0,-16
,510,2018/03/15 00:36:48.37,-2504,11370,-11417,-2,96,-37,67,-98,-104,-47,-15
,511,2018/03/15 00:36:48.39,-2439,11428,-11390,-80,51,-110,38,-131,-148,14,36
,512,2018/03/15 00:36:48.41,-2504,11420,-11351,-120,35,-102,62,-155,-164,42,20
,513,2018/03/15 00:36:48.43,-2564,11451,-11375,-96,68,-82,82,-164,-164,14,0
,514,2018/03/15 00:36:48.45,-2567,11409,-11362,-66,97,-72,84,-163,-156,-15,-6
,515,2018/03/15 00:36:48.47,-2591,11415,-11435,-54,96,-41,93,-150,-134,-21,-26
,516,2018/03/15 00:36:48.49,-2498,11486,-11411,-25,102,-20,113,-127,-133,-38,-46
,517,2018/03/15 00:36:48.51,-2472,11392,-11359,-28,104,-26,105,-132,-131,-38,-39
,518,2018/03/15 00:36:48.53,-2482,11346,-11390,-35,90,-39,83,-125,-122,-27,-22
,519,2018/03/15 00:36:48.55,-2522,11320,-11391,-33,89,-36,80,-122,-116,-28,-22
,520,2018/03/15 00:36:48.57,-2558,11300,-11402,-21,97,-26,95,-118,-121,-38,-34
,521,2018/03/15 00:36:48.59,-2482,11404,-11364,-33,88,-32,92,-121,-124,-27,-30
,522,2018/03/15 00:36:48.61,-2457,11407,-11394,-35,82,-23,93,-117,-116,-23,-35
,523,2018/03/15 00:36:48.63,-2474,11411,-11429,-24,90,-23,87,-114,-110,-33,-32
,524,2018/03/15 00:36:48.65,-2498,11447,-11400,-13,91,-16,78,-104,-94,-39,-31
,525,2018/03/15 00:36:48.67,-2491,11457,-11374,-7,83,-9,77,-90,-86,-38,-34
,526,2018/03/15 00:36:48.69,-2447,11442,-11388,-10,72,-3,81,-82,-84,-31,-39
,527,2018/03/15 00:36:48.71,-2470,11414,-11423,-16,73,-14,82,-89,-96,-28,-34
,528,2018/03/15 00:36:48.73,-2439,11396,-11374,-9,87,-20,72,-96,-92,-39,-26
,529,2018/03/15 00:36:48.75,-2450,11433,-11403,-17,80,-31,64,-97,-95,-31,-16
,530,2018/03/15 00:36:48.77,-2503,11387,-11383,-26,81,-28,81,-107,-109,-27,-26
,531,2018/03/15 00:36:48.79,-2499,11435,-11376,-35,75,-22,82,-110,-104,-20,-30
,532,2018/03/15 00:36:48.81,-2470,11459,-11382,-24,70,-22,70,-94,-92,-23,-24
,533,2018/03/15 00:36:48.83,-2542,11426,-11413,-27,68,-30,64,-95,-94,-20,-17
,534,2018/03/15 00:36:48.85,-2455,11404,-11403,-22,67,-33,51,-89,-84,-22,-9
,535,2018/03/15 00:36:48.87,-2513,11392,-11402,-34,58,-30,69,-92,-99,-12,-19
,536,2018/03/15 00:36:48.89,-2525,11465,-11431,-22,76,2,98,-98,-96,-27,-50
,537,2018/03/15 00:36:48.91,-2495,11416,-11316,4,96,1,97,-92,-96,-50,-49
,538,2018/03/15 00:36:48.93,-2455,11428,-11453,-5,90,-19,77,-95,-96,-42,-29
,539,2018/03/15 00:36:48.95,-2575,11389,-11427,-11,86,-14,83,-97,-97,-37,-34
,540,2018/03/15 00:36:48.97,-2481,11410,-11365,-9,95,-12,97,-104,-109,-43,-42
,541,2018/03/15 00:36:48.99,-2477,11400,-11284,-23,81,-13,88,-104,-101,-29,-37
,542,2018/03/15 00:36:49.01,-2518,11412,-11310,-15,80,-22,76,-95,-98,-32,-27
,543,2018/03/15 00:36:49.03,-2417,11442,-11466,-25,75,-38,63,-100,-101,-25,-12
,544,2018/03/15 00:36:49.05,-2461,11465,-11427,-28,80,-36,72,-108,-108,-26,-18
,545,2018/03/15 00:36:49.07,-2527,11453,-11379,-36,70,-25,82,-106,-107,-17,-28
,546,2018/03/15 00:36:49.09,-2537,11427,-11376,-26,80,-22,86,-106,-108,-27,-32
,547,2018/03/15 00:36:49.11,-2537,11373,-11401,-35,72,-38,70,-107,-108,-18,-16
,548,2018/03/15 00:36:49.13,-2569,11358,-11414,-27,81,-24,83,-108,-107,-27,-29
,549,2018/03/15 00:36:49.15,-2532,11374,-11375,-25,79,-33,69,-104,-102,-27,-18
,550,2018/03/15 00:36:49.17,-2562,11355,-11388,-33,63,-25,76,-96,-101,-15,-25
,551,2018/03/15 00:36:49.19,-2546,11381,-11422,-31,71,-13,91,-102,-104,-20,-39
,552,2018/03/15 00:36:49.21,-2531,11426,-11376,-9,89,-18,83,-98,-101,-40,-32
,553,2018/03/15 00:36:49.23,-2468,11363,-11384,-17,85,-26,73,-102,-99,-34,-23
,554,2018/03/15 00:36:49.25,-2552,11397,-11404,-14,88,-15,87,-102,-102,-37,-36
,555,2018/03/15 00:36:49.27,-2473,11360,-11454,-26,72,-28,70,-98,-98,-23,-21
,556,2018/03/15 00:36:49.29,-2460,11359,-11435,-32,63,-18,78,-95,-96,-15,-30
,557,2018/03/15 00:36:49.31,-2542,11417,-11380,-33,55,-48,27,-88,-75,-11,10
,558,2018/03/15 00:36:49.33,-2513,11405,-11446,-36,34,-39,27,-70,-66,1,6
,559,2018/03/15 00:36:49.35,-2507,11391,-11427,-40,31,-52,23,-71,-75,4,14
,560,2018/03/15 00:36:49.37,-2458,11407,-11409,-64,14,-54,24,-78,-78,25,15
,561,2018/03/15 00:36:49.39,-2435,11412,-11409,-57,11,-49,13,-68,-62,23,18
,562,2018/03/15 00:36:49.41,-2423,11346,-11412,-49,19,-54,22,-68,-76,15,16
,563,2018/03/15 00:36:49.43,-2433,11412,-11428,-52,33,-52,25,-85,-77,9,13
,564,2018/03/15 00:36:49.45,-2448,11432,-11413,-38,30,-36,28,-68,-64,4,4
,565,2018/03/15 00:36:49.47,-2539,11419,-11422,-53,21,-46,35,-74,-81,16,5
,566,2018/03/15 00:36:49.49,-2422,11368,-11380,-43,39,-32,51,-82,-83,2,-9
,567,2018/03/15 00:36:49.51,-2488,11443,-11410,-30,55,-44,41,-85,-85,-12,1
,568,2018/03/15 00:36:49.53,-2449,11390,-11390,-37,46,-38,40,-83,-78,-4,-1
,569,2018/03/15 00:36:49.55,-2452,11362,-11390,-16,64,-10,74,-80,-84,-24,-32
,570,2018/03/15 00:36:49.57,-2430,11440,-11403,-22,64,-17,69,-86,-86,-21,-26
,571,2018/03/15 00:36:49.59,-2476,11458,-11351,-20,72,-13,83,-92,-96,-26,-35
,572,2018/03/15 00:36:49.61,-2527,11437,-11350,-7,91,-5,89,-98,-94,-42,-42
,573,2018/03/15 00:36:49.63,-2496,11444,-11365,-1,102,-8,103,-103,-111,-50,-47
,574,2018/03/15 00:36:49.65,-2513,11386,-11423,1,116,18,135,-115,-117,-58,-76
,575,2018/03/15 00:36:49.67,-2499,11359,-11386,21,137,28,146,-116,-118,-79,-87
,576,2018/03/15 00:36:49.69,-2512,11378,-11272,16,134,11,131,-118,-120,-75,-71
,577,2018/03/15 00:36:49.71,-2518,11423,-11276,20,140,19,133,-120,-114,-80,-76
,578,2018/03/15 00:36:49.73,-2474,11420,-11446,28,139,17,128,-111,-111,-83,-72
,579,2018/03/15 00:36:49.75,-2458,11490,-11429,4,125,-1,133,-121,-134,-64,-66
,580,2018/03/15 00:36:49.77,-2430,11540,-11319,-12,122,-4,122,-134,-126,-55,-59
,581,2018/03/15 00:36:49.79,-2544,11469,-11348,-16,104,-28,93,-120,-121,-44,-32
,582,2018/03/15 00:36:49.81,-2547,11422,-11377,-28,101,-36,94,-129,-130,-36,-29
,583,2018/03/15 00:36:49.83,-2588,11398,-11352,-25,103,-20,101,-128,-121,-39,-40
,584,2018/03/15 00:36:49.85,-2569,11406,-11301,-22,96,-18,100,-118,-118,-37,-41
,585,2018/03/15 00:36:49.87,-2480,11458,-11331,-32,81,-34,86,-113,-120,-24,-26
,586,2018/03/15 00:36:49.89,-2543,11446,-11421,-41,83,-39,77,-124,-116,-21,-19
,587,2018/03/15 00:36:49.91,-2516,11363,-11361,-31,87,-36,80,-118,-116,-28,-22
,588,2018/03/15 00:36:49.93,-2512,11352,-11356,-31,87,-31,85,-118,-116,-28,-27
,589,2018/03/15 00:36:49.95,-2493,11354,-11368,-36,78,-21,96,-114,-117,-21,-37
,590,2018/03/15 00:36:49.97,-2569,11355,-11444,-30,87,-24,96,-117,-120,-28,-36
,591,2018/03/15 00:36:49.99,-2562,11399,-11363,-17,99,-26,95,-116,-121,-41,-34
,592,2018/03/15 00:36:50.01,-2524,11435,-11373,-23,102,-40,80,-125,-120,-39,-20
,593,2018/03/15 00:36:50.03,-2508,11479,-11383,-36,85,-39,82,-121,-121,-24,-21
,594,2018/03/15 00:36:50.05,-2525,11449,-11428,-37,83,-21,103,-120,-124,-23,-41
,595,2018/03/15 00:36:50.07,-2495,11449,-11402,-20,100,-16,107,-120,-123,-40,-45
,596,2018/03/15 00:36:50.09,-2526,11371,-11357,-12,109,-28,91,-121,-119,-48,-31
,597,2018/03/15 00:36:50.11,-2543,11382,-11364,-28,90,-38,75,-118,-113,-31,-18
,598,2018/03/15 00:36:50.13,-2518,11431,-11361,-35,75,-29,80,-110,-109,-20,-25
,599,2018/03/15 00:36:50.15,-2535,11457,-11389,-37,71,-35,77,-108,-112,-17,-21
,600,2018/03/15 00:36:50.17,-2506,11430,-11437,-42,69,-26,84,-111,-110,-13,-29
,601,2018/03/15 00:36:50.19,-2465,11370,-11376,-6,100,-16,86,-106,-102,-47,-35
,602,2018/03/15 00:36:50.21,-2469,11386,-11383,-19,84,-24,72,-103,-96,-32,-24
,603,2018/03/15 00:36:50.23,-2462,11378,-11361,-26,64,-25,67,-90,-92,-19,-21
,604,2018/03/15 00:36:50.25,-2494,11395,-11347,-40,62,-36,76,-102,-112,-11,-20
,605,2018/03/15 00:36:50.27,-2482,11376,-11413,-35,69,-27,72,-104,-99,-17,-22
,606,2018/03/15 00:36:50.29,-2493,11391,-11365,-13,88,-24,78,-101,-102,-37,-27
,607,2018/03/15 00:36:50.31,-2533,11468,-11337,-24,78,-33,64,-102,-97,-27,-15
,608,2018/03/15 00:36:50.33,-2513,11412,-11436,-38,59,-31,74,-97,-105,-10,-21
,609,2018/03/15 00:36:50.35,-2519,11382,-11459,-42,68,-36,80,-110,-116,-13,-22
,610,2018/03/15 00:36:50.37,-2537,11449,-11233,-31,85,-32,76,-116,-108,-27,-22
,611,2018/03/15 00:36:50.39,-2559,11496,-11299,-25,77,-23,65,-102,-88,-26,-21
,612,2018/03/15 00:36:50.41,-2492,11486,-11332,-13,77,-15,78,-90,-93,-32,-31
,613,2018/03/15 00:36:50.43,-2493,11480,-11385,-18,74,-2,93,-92,-95,-28,-45
,614,2018/03/15 00:36:50.45,-2448,11505,-11366,-6,85,-11,87,-91,-98,-39,-38
,615,2018/03/15 00:36:50.47,-2398,11493,-11340,-20,82,-13,88,-102,-101,-31,-37
,616,2018/03/15 00:36:50.49,-2481,11443,-11340,-2,97,-16,79,-99,-95,-47,-31
,617,2018/03/15 00:36:50.51,-2479,11390,-11356,-18,85,-27,82,-103,-109,-33,-27
,618,2018/03/15 00:36:50.53,-2511,11401,-11422,-41,70,-31,76,-111,-107,-14,-22
,619,2018/03/15 00:36:50.55,-2526,11438,-11325,-30,70,-29,76,-100,-105,-20,-23
,620,2018/03/15 00:36:50.57,-2527,11414,-11367,-38,65,-52,43,-103,-95,-13,4
,621,2018/03/15 00:36:50.59,-2543,11456,-11410,-44,51,-42,56,-95,-98,-3,-7
,622,2018/03/15 00:36:50.61,-2541,11490,-11329,-33,74,-28,84,-107,-112,-20,-28
,623,2018/03/15 00:36:50.63,-2504,11426,-11303,-33,74,-20,82,-107,-102,-20,-31
,624,2018/03/15 00:36:50.65,-2523,11335,-11379,-21,76,-17,80,-97,-97,-27,-31
,625,2018/03/15 00:36:50.67,-2447,11331,-11396,-15,87,-19,81,-102,-100,-36,-31
,626,2018/03/15 00:36:50.69,-2518,11427,-11398,-15,86,-29,71,-101,-100,-35,-21
,627,2018/03/15 00:36:50.71,-2508,11455,-11428,-28,71,-19,80,-99,-99,-21,-30
,628,2018/03/15 00:36:50.73,-2449,11505,-11387,-23,75,-14,85,-98,-99,-26,-35
,629,2018/03/15 00:36:50.75,-2474,11447,-11341,-24,72,-32,65,-96,-97,-24,-16
,630,2018/03/15 00:36:50.77,-2453,11430,-11348,-29,69,-36,66,-98,-102,-20,-15
,631,2018/03/15 00:36:50.79,-2582,11391,-11351,-33,65,-33,61,-98,-94,-16,-14
,632,2018/03/15 00:36:50.81,-2507,11437,-11318,-27,61,-36,52,-88,-88,-17,-8
,633,2018/03/15 00:36:50.83,-2543,11393,-11337,-56,28,-55,27,-84,-82,14,14
,634,2018/03/15 00:36:50.85,-2442,11394,-11462,-46,36,-33,49,-82,-82,5,-8
,635,2018/03/15 00:36:50.87,-2389,11463,-11388,-20,67,-28,58,-87,-86,-23,-15
,636,2018/03/15 00:36:50.89,-2472,11435,-11386,-34,53,-40,45,-87,-85,-9,-2
,637,2018/03/15 00:36:50.91,-2540,11378,-11362,-39,51,-45,56,-90,-101,-6,-5
,638,2018/03/15 00:36:50.93,-2525,11442,-11308,-63,39,-54,46,-102,-100,12,4
,639,2018/03/15 00:36:50.95,-2509,11511,-11405,-49,46,-48,42,-95,-90,1,3
,640,2018/03/15 00:36:50.97,-2493,11502,-11335,-40,51,-44,44,-91,-88,-5,0
,641,2018/03/15 00:36:50.99,-2482,11513,-11361,-40,52,-47,47,-92,-94,-6,0
,642,2018/03/15 00:36:51.01,-2486,11499,-11291,-52,37,-39,46,-89,-85,7,-3
,643,2018/03/15 00:36:51.03,-2525,11479,-11375,-37,46,-32,53,-83,-85,-4,-10
,644,2018/03/15 00:36:51.05,-2580,11370,-11424,-35,48,-35,47,-83,-82,-6,-6
,645,2018/03/15 00:36:51.07,-2543,11391,-11275,-19,65,-21,62,-84,-83,-23,-20
,646,2018/03/15 00:36:51.09,-2551,11410,-11203,-19,66,-15,69,-85,-84,-23,-27
,647,2018/03/15 00:36:51.11,-2536,11491,-11294,-23,58,-15,67,-81,-82,-17,-26
,648,2018/03/15 00:36:51.13,-2516,11497,-11414,-22,55,-21,51,-77,-72,-16,-15
,649,2018/03/15 00:36:51.15,-2487,11534,-11327,-24,44,-33,33,-68,-66,-10,0
,650,2018/03/15 00:36:51.17,-2468,11544,-11357,-31,46,-34,45,-77,-79,-7,-5
,651,2018/03/15 00:36:51.19,-2508,11451,-11350,-27,60,-16,59,-87,-75,-16,-21
,652,2018/03/15 00:36:51.21,-2554,11430,-11277,-19,49,1,67,-68,-66,-15,-34
,653,2018/03/15 00:36:51.23,-2630,11392,-11289,-12,53,-19,48,-65,-67,-20,-14
,654,2018/03/15 00:36:51.25,-2535,11367,-11294,-25,39,-20,41,-64,-61,-7,-10
,655,2018/03/15 00:36:51.27,-2661,11465,-11270,-13,52,-19,51,-65,-70,-19,-16
,656,2018/03/15 00:36:51.29,-2553,11439,-11353,-18,52,-14,50,-70,-64,-17,-18
,657,2018/03/15 00:36:51.31,-2467,11503,-11278,-12,46,-7,55,-58,-62,-17,-24
,658,2018/03/15 00:36:51.33,-2549,11395,-11338,-20,45,-27,36,-65,-63,-12,-4
,659,2018/03/15 00:36:51.35,-2491,11397,-11315,-28,35,-34,28,-63,-62,-3,3
,660,2018/03/15 00:36:51.37,-2558,11396,-11344,-10,50,-4,50,-60,-54,-20,-23
,661,2018/03/15 00:36:51.39,-2536,11445,-11348,-7,49,-9,52,-56,-61,-21,-21
,662,2018/03/15 00:36:51.41,-2421,11493,-11350,-16,42,-1,59,-58,-60,-13,-29
,663,2018/03/15 00:36:51.43,-2476,11495,-11355,-3,59,-7,57,-62,-64,-28,-25
,664,2018/03/15 00:36:51.45,-2457,11561,-11338,11,74,11,69,-63,-58,-42,-40
,665,2018/03/15 00:36:51.47,-2520,11490,-11377,11,73,-1,61,-62,-62,-42,-30
,666,2018/03/15 00:36:51.49,-2534,11470,-11377,-16,38,-9,37,-54,-46,-11,-14
,667,2018/03/15 00:36:51.51,-2528,11371,-11343,-12,26,-8,25,-38,-33,-7,-8
,668,2018/03/15 00:36:51.53,-2556,11380,-11362,-11,15,-15,4,-26,-19,-2,5
,669,2018/03/15 00:36:51.55,-2448,11447,-11322,-8,10,-13,3,-18,-16,-1,5
,670,2018/03/15 00:36:51.57,-2466,11485,-11363,-11,10,-18,0,-21,-18,0,9
,671,2018/03/15 00:36:51.59,-2460,11415,-11356,-22,-7,-6,20,-15,-26,14,-7
,672,2018/03/15 00:36:51.61,-2449,11383,-11375,-17,20,-15,42,-37,-57,-1,-13
,673,2018/03/15 00:36:51.63,-2438,11393,-11307,-10,58,-24,56,-68,-80,-24,-16
,674,2018/03/15 00:36:51.65,-2503,11419,-11358,-17,79,-32,74,-96,-106,-31,-21
,675,2018/03/15 00:36:51.67,-2539,11450,-11408,-35,92,-41,103,-127,-144,-28,-31
,676,2018/03/15 00:36:51.69,-2511,11487,-11281,-40,114,-28,132,-154,-160,-37,-52
,677,2018/03/15 00:36:51.71,-2519,11524,-11421,-34,128,-23,142,-162,-165,-47,-59
,678,2018/03/15 00:36:51.73,-2573,11477,-11402,-19,146,-31,135,-165,-166,-63,-52
,679,2018/03/15 00:36:51.75,-2514,11452,-11239,-28,140,-36,129,-168,-165,-56,-46
,680,2018/03/15 00:36:51.77,-2517,11409,-11244,-30,134,-31,137,-164,-168,-52,-53
,681,2018/03/15 00:36:51.79,-2611,11384,-11341,-40,126,-39,132,-166,-171,-43,-46
,682,2018/03/15 00:36:51.81,-2586,11443,-11378,-45,120,-42,120,-165,-162,-37,-39
,683,2018/03/15 00:36:51.83,-2445,11506,-11355,-38,126,-48,120,-164,-168,-44,-36
,684,2018/03/15 00:36:51.85,-2523,11558,-11311,-40,128,-47,116,-168,-163,-44,-34
,685,2018/03/15 00:36:51.87,-2528,11502,-11307,-46,121,-36,134,-167,-170,-37,-49
,686,2018/03/15 00:36:51.89,-2530,11426,-11337,-43,122,-40,119,-165,-159,-39,-39
,687,2018/03/15 00:36:51.91,-2516,11393,-11325,-48,102,-53,102,-150,-155,-27,-24
,688,2018/03/15 00:36:51.93,-2553,11428,-11280,-55,101,-58,90,-156,-148,-23,-16
,689,2018/03/15 00:36:51.95,-2528,11485,-11360,-40,106,-34,109,-146,-143,-33,-37
,690,2018/03/15 00:36:51.97,-2515,11459,-11354,-34,115,-33,121,-149,-154,-40,-44
,691,2018/03/15 00:36:51.99,-2561,11472,-11317,-50,104,-48,107,-154,-155,-27,-29
,692,2018/03/15 00:36:52.01,-2492,11500,-11327,-44,108,-42,101,-152,-143,-32,-29
,693,2018/03/15 00:36:52.03,-2613,11476,-11344,-38,106,-44,95,-144,-139,-34,-25
,694,2018/03/15 00:36:52.05,-2527,11439,-11332,-44,99,-41,96,-143,-137,-27,-27
,695,2018/03/15 00:36:52.07,-2496,11465,-11344,-46,92,-34,110,-138,-144,-23,-38
,696,2018/03/15 00:36:52.09,-2478,11506,-11371,-39,103,-40,97,-142,-137,-32,-28
,697,2018/03/15 00:36:52.11,-2474,11481,-11364,-48,89,-54,92,-137,-146,-20,-19
,698,2018/03/15 00:36:52.13,-2477,11453,-11349,-52,100,-55,87,-152,-142,-24,-16
,699,2018/03/15 00:36:52.15,-2450,11408,-11395,-44,88,-52,79,-132,-131,-22,-13
,700,2018/03/15 00:36:52.17,-2503,11340,-11436,-68,66,-55,83,-134,-138,1,-14
,701,2018/03/15 00:36:52.19,-2429,11390,-11375,-46,85,-32,97,-131,-129,-19,-32
,702,2018/03/15 00:36:52.21,-2422,11426,-11373,-29,100,-34,100,-129,-134,-35,-33
,703,2018/03/15 00:36:52.23,-2437,11416,-11394,-28,107,-35,96,-135,-131,-39,-30
,704,2018/03/15 00:36:52.25,-2420,11477,-11370,-29,104,-29,101,-133,-130,-37,-36
,705,2018/03/15 00:36:52.27,-2467,11463,-11436,-42,84,-44,82,-126,-126,-21,-19
,706,2018/03/15 00:36:52.29,-2475,11422,-11381,-53,69,-52,71,-122,-123,-8,-9
,707,2018/03/15 00:36:52.31,-2499,11384,-11437,-44,77,-37,75,-121,-112,-16,-19
,708,2018/03/15 00:36:52.33,-2464,11403,-11427,-22,88,-22,88,-110,-110,-33,-33
,709,2018/03/15 00:36:52.35,-2398,11409,-11294,-18,98,-9,108,-116,-117,-40,-49
,710,2018/03/15 00:36:52.37,-2536,11404,-11379,-15,102,-14,109,-117,-123,-43,-47
,711,2018/03/15 00:36:52.39,-2549,11503,-11408,-17,99,-13,101,-116,-114,-41,-44
,712,2018/03/15 00:36:52.41,-2511,11467,-11377,-4,117,-16,112,-121,-128,-56,-48
,713,2018/03/15 00:36:52.43,-2560,11396,-11424,-17,108,-30,93,-125,-123,-45,-31
,714,2018/03/15 00:36:52.45,-2464,11415,-11307,-26,91,-29,90,-117,-119,-32,-30
,715,2018/03/15 00:36:52.47,-2521,11394,-11381,-37,77,-33,80,-114,-113,-20,-23
,716,2018/03/15 00:36:52.49,-2493,11399,-11471,-33,81,-33,86,-114,-119,-24,-26
,717,2018/03/15 00:36:52.51,-2464,11414,-11451,-23,96,-32,84,-119,-116,-36,-26
,718,2018/03/15 00:36:52.53,-2523,11388,-11388,-28,88,-40,75,-116,-115,-30,-17
,719,2018/03/15 00:36:52.55,-2392,11357,-11374,-47,68,-44,74,-115,-118,-10,-15
,720,2018/03/15 00:36:52.57,-2531,11330,-11361,-52,72,-34,94,-124,-128,-10,-30
,721,2018/03/15 00:36:52.59,-2559,11324,-11411,-38,83,-37,84,-121,-121,-22,-23
,722,2018/03/15 00:36:52.61,-2519,11379,-11373,-26,89,-8,103,-115,-111,-31,-47
,723,2018/03/15 00:36:52.63,-2546,11438,-11349,46,161,86,206,-115,-120,-103,-146
,724,2018/03/15 00:36:52.65,-2542,11448,-11437,101,237,168,316,-136,-148,-169,-242
,725,2018/03/15 00:36:52.67,-2500,11479,-11429,224,378,412,600,-154,-188,-301,-506
,726,2018/03/15 00:36:52.69,-2467,11453,-11450,878,1078,1644,1724,-200,-80,-978,-1684
,727,2018/03/15 00:36:52.71,-2552,11372,-11366,1913,1773,1919,1781,140,138,-1843,-1850
,728,2018/03/15 00:36:52.73,-2494,11478,-11478,1908,1779,1873,1768,129,105,-1843,-1820
,729,2018/03/15 00:36:52.75,-2483,11414,-11399,1779,1748,1721,1729,31,-8,-1763,-1725
,730,2018/03/15 00:36:52.77,-2471,11449,-11413,1546,1623,1192,1257,-77,-65,-1584,-1224
,731,2018/03/15 00:36:52.79,-2381,11518,-11418,744,781,387,450,-37,-63,-762,-418
,732,2018/03/15 00:36:52.81,-2453,11479,-11499,203,334,122,320,-131,-198,-268,-221
,733,2018/03/15 00:36:52.83,-2470,11380,-11450,103,368,145,442,-265,-297,-235,-293
,734,2018/03/15 00:36:52.85,-2422,11363,-11466,229,547,379,696,-318,-317,-388,-537
,735,2018/03/15 00:36:52.87,-2453,11317,-11412,476,761,541,771,-285,-230,-618,-656
,736,2018/03/15 00:36:52.89,-2404,11318,-11398,650,834,734,882,-184,-148,-742,-808
,737,2018/03/15 00:36:52.91,-2510,11322,-11427,697,817,545,641,-120,-96,-757,-593
,738,2018/03/15 00:36:52.93,-2386,11388,-11418,423,502,414,482,-79,-68,-462,-448
,739,2018/03/15 00:36:52.95,-2473,11391,-11431,419,474,403,459,-55,-56,-446,-431
,740,2018/03/15 00:36:52.97,-2393,11366,-11401,319,375,208,263,-56,-55,-347,-235
,741,2018/03/15 00:36:52.99,-2475,11359,-11435,66,125,-56,-4,-59,-52,-95,30
,742,2018/03/15 00:36:53.01,-2473,11417,-11366,-116,-66,-152,-109,-50,-43,91,130
,743,2018/03/15 00:36:53.03,-2462,11401,-11411,-181,-145,-195,-167,-36,-28,163,181
,744,2018/03/15 00:36:53.05,-2466,11381,-11395,-215,-197,-236,-222,-18,-14,206,229
,745,2018/03/15 00:36:53.07,-2440,11458,-11367,-279,-268,-297,-290,-11,-7,273,293
,746,2018/03/15 00:36:53.09,-2538,11388,-11410,-295,-292,-308,-310,-3,2,293,309
,747,2018/03/15 00:36:53.11,-2514,11460,-11468,-315,-314,-324,-322,-1,-2,314,323
,748,2018/03/15 00:36:53.13,-2452,11419,-11403,-311,-312,-287,-288,1,1,311,287
,749,2018/03/15 00:36:53.15,-2529,11401,-11411,-287,-288,-280,-280,1,0,287,280
,750,2018/03/15 00:36:53.17,-2505,11417,-11319,-277,-280,-276,-282,3,6,278,279
,751,2018/03/15 00:36:53.19,-2464,11430,-11327,-269,-272,-272,-277,3,5,270,274
,752,2018/03/15 00:36:53.21,-2440,11717,-11516,-255,-263,-259,-267,8,8,259,263
,753,2018/03/15 00:36:53.23,-2524,11890,-11424,-267,-272,-256,-251,5,-5,269,253
,754,2018/03/15 00:36:53.25,-2446,12513,-11043,-236,-234,-219,-212,-2,-7,235,215
,755,2018/03/15 00:36:53.27,-2358,14170,-11601,-212,-199,-228,-209,-13,-19,205,218
,756,2018/03/15 00:36:53.29,-2383,15206,-11428,-208,-190,-184,-175,-18,-9,199,179
,757,2018/03/15 00:36:53.31,-2486,15564,-11480,-134,-123,-77,-59,-11,-18,128,68
,758,2018/03/15 00:36:53.33,-2575,17443,-11193,-25,10,55,113,-35,-58,7,-84
,759,2018/03/15 00:36:53.35,-2941,15950,-11287,108,174,130,194,-66,-64,-141,-162
,760,2018/03/15 00:36:53.37,-3225,12748,-11903,108,158,83,105,-50,-22,-133,-94
,761,2018/03/15 00:36:53.39,-3690,9288,-11776,113,117,136,137,-4,-1,-115,-136
,762,2018/03/15 00:36:53.41,-4201,6317,-12083,127,140,104,128,-13,-24,-133,-116
,763,2018/03/15 00:36:53.43,-4821,4181,-12341,125,160,152,192,-35,-40,-142,-172
,764,2018/03/15 00:36:53.45,-5387,2925,-12648,144,190,94,148,-46,-54,-167,-121
,765,2018/03/15 00:36:53.47,-5911,2585,-12737,-9,59,-103,-13,-68,-90,-25,58
,766,2018/03/15 00:36:53.49,-6346,2407,-12963,-154,-43,-225,-64,-111,-161,98,144
,767,2018/03/15 00:36:53.51,-6688,2024,-13409,-339,-52,-421,-27,-287,-394,195,224
,768,2018/03/15 00:36:53.53,-6528,1857,-13587,-439,-3,-408,9,-436,-417,221,199
,769,2018/03/15 00:36:53.55,-6124,1698,-13145,-360,8,-310,2,-368,-312,176,154
,770,2018/03/15 00:36:53.57,-5396,2220,-13082,-267,-7,-230,-17,-260,-213,137,123
,771,2018/03/15 00:36:53.59,-4220,3504,-13120,-203,-36,-190,-61,-167,-129,119,125
,772,2018/03/15 00:36:53.61,-3064,4792,-13207,-182,-77,-176,-91,-105,-85,129,133
,773,2018/03/15 00:36:53.63,-1674,6708,-12875,-175,-109,-163,-125,-66,-38,142,144
,774,2018/03/15 00:36:53.65,-399,9716,-12312,-175,-159,-172,-178,-16,6,167,175
,775,2018/03/15 00:36:53.67,-121,11840,-13480,-165,-193,-162,-209,28,47,179,185
,776,2018/03/15 00:36:53.69,-33,11836,-14382,-166,-221,-161,-215,55,54,193,188
,777,2018/03/15 00:36:53.71,-44,12713,-13899,-131,-179,-86,-119,48,33,155,102
,778,2018/03/15 00:36:53.73,33,12714,-13687,-88,-99,-102,-74,11,-28,93,88
,779,2018/03/15 00:36:53.75,231,12639,-13469,-125,-66,-150,-75,-59,-75,95,112
,780,2018/03/15 00:36:53.77,414,12399,-13230,-163,-75,-192,-102,-88,-90,119,147
,781,2018/03/15 00:36:53.79,575,12178,-13184,-188,-97,-181,-91,-91,-90,142,136
,782,2018/03/15 00:36:53.81,631,12019,-13074,-188,-102,-170,-86,-86,-84,145,128
,783,2018/03/15 00:36:53.83,660,11689,-13179,-166,-88,-153,-75,-78,-78,127,114
,784,2018/03/15 00:36:53.85,560,11213,-13425,-142,-63,-137,-60,-79,-77,102,98
,785,2018/03/15 00:36:53.87,469,10989,-13215,-114,-37,-112,-48,-77,-64,75,80
,786,2018/03/15 00:36:53.89,344,10445,-13252,-96,-36,-86,-28,-60,-58,66,57
,787,2018/03/15 00:36:53.91,297,10197,-13257,-93,-43,-71,-25,-50,-46,68,48
,788,2018/03/15 00:36:53.93,267,9843,-13394,-73,-29,-68,-16,-44,-52,51,42
,789,2018/03/15 00:36:53.95,140,9519,-13311,-69,-15,-76,-24,-54,-52,42,50
,790,2018/03/15 00:36:53.97,71,9220,-13278,-59,-1,-75,-13,-58,-62,30,44
,791,2018/03/15 00:36:53.99,-98,9079,-13348,-76,-17,-60,-11,-59,-49,46,35
,792,2018/03/15 00:36:54.01,-338,9109,-13327,-52,-15,-32,0,-37,-32,33,16
,793,2018/03/15 00:36:54.03,-461,9108,-13408,-30,-5,-34,-12,-25,-22,17,23
,794,2018/03/15 00:36:54.05,-571,9140,-13526,-22,-4,-32,-18,-18,-14,13,25
,795,2018/03/15 00:36:54.07,-695,9339,-13361,-7,8,-14,-5,-15,-9,0,9
,796,2018/03/15 00:36:54.09,-770,9407,-13564,-19,-9,-18,-7,-10,-11,14,12
,797,2018/03/15 00:36:54.11,-961,9426,-13462,-30,-15,-25,0,-15,-25,22,12
,798,2018/03/15 00:36:54.13,-1175,9345,-13451,-40,-3,-48,-9,-37,-39,21,28
,799,2018/03/15 00:36:54.15,-1360,9232,-13376,-44,-6,-52,-16,-38,-36,25,34
,800,2018/03/15 00:36:54.17,-1510,8976,-13348,-43,-3,-45,-4,-40,-41,23,24
,801,2018/03/15 00:36:54.19,-1606,8820,-13303,-43,1,-37,12,-44,-49,21,12
,802,2018/03/15 00:36:54.21,-1750,8962,-13150,-49,2,-42,13,-51,-55,23,14
,803,2018/03/15 00:36:54.23,-1970,8722,-13243,-42,13,-42,14,-55,-56,14,14
,804,2018/03/15 00:36:54.25,-2124,8655,-13335,-39,22,-56,9,-61,-65,8,23
,805,2018/03/15 00:36:54.27,-2122,8514,-13343,-57,12,-60,3,-69,-63,22,28
,806,2018/03/15 00:36:54.29,-2172,8521,-13329,-61,-6,-51,6,-55,-57,33,22
,807,2018/03/15 00:36:54.31,-2235,8530,-13236,-55,10,-54,23,-65,-77,22,15
,808,2018/03/15 00:36:54.33,-2230,8646,-13307,-69,13,-81,2,-82,-83,28,39
,809,2018/03/15 00:36:54.35,-2191,8681,-13351,-70,13,-69,8,-83,-77,28,30
,810,2018/03/15 00:36:54.37,-2135,8801,-13414,-56,24,-55,30,-80,-85,16,12
,811,2018/03/15 00:36:54.39,-2081,8991,-13363,-63,24,-58,30,-87,-88,19,14
,812,2018/03/15 00:36:54.41,-2096,9175,-13406,-54,23,-41,35,-77,-76,15,3
,813,2018/03/15 00:36:54.43,-2048,9289,-13305,-46,32,-45,20,-78,-65,7,12
,814,2018/03/15 00:36:54.45,-2130,9482,-13272,-34,23,-28,16,-57,-44,5,6
,815,2018/03/15 00:36:54.47,-2112,9570,-13304,-26,12,-11,23,-38,-34,7,-6
,816,2018/03/15 00:36:54.49,-2129,9524,-13300,-15,14,-8,27,-29,-35,0,-9
,817,2018/03/15 00:36:54.51,-2143,9461,-13248,-31,11,-36,11,-42,-47,10,12
,818,2018/03/15 00:36:54.53,-2157,9360,-13316,-33,14,-28,20,-47,-48,9,4
,819,2018/03/15 00:36:54.55,-2153,9287,-13216,-18,34,-32,21,-52,-53,-8,5
,820,2018/03/15 00:36:54.57,-2201,9256,-13222,-43,11,-55,4,-54,-59,16,25
,821,2018/03/15 00:36:54.59,-2184,9249,-13311,-63,1,-42,28,-64,-70,31,7
,822,2018/03/15 00:36:54.61,-2280,9218,-13272,-38,32,-29,37,-70,-66,3,-4
,823,2018/03/15 00:36:54.63,-2236,9288,-13360,-21,46,-38,34,-67,-72,-12,2
,824,2018/03/15 00:36:54.65,-2270,9217,-13054,-48,40,-51,43,-88,-94,4,4
,825,2018/03/15 00:36:54.67,-2238,9160,-12748,-42,51,-32,64,-93,-96,-4,-16
,826,2018/03/15 00:36:54.69,-2325,9457,-13086,-31,75,-34,85,-106,-119,-22,-25
,827,2018/03/15 00:36:54.71,-2356,9261,-12825,-55,57,-37,62,-112,-99,-1,-12
,828,2018/03/15 00:36:54.73,-2211,9738,-13326,-16,73,-40,41,-89,-81,-28,0
,829,2018/03/15 00:36:54.75,-2151,9564,-13589,-49,41,-62,28,-90,-90,4,17
,830,2018/03/15 00:36:54.77,-1913,9453,-14374,-72,5,-68,-3,-77,-65,33,35
,831,2018/03/15 00:36:54.79,-1466,8382,-14221,-68,-10,-49,14,-58,-63,39,17
,832,2018/03/15 00:36:54.81,-1147,7487,-14418,-32,36,-32,38,-68,-70,-2,-3
,833,2018/03/15 00:36:54.83,-942,7088,-15110,-25,55,-24,69,-80,-93,-15,-22
,834,2018/03/15 00:36:54.85,-684,6231,-15169,6,114,25,141,-108,-116,-60,-83
,835,2018/03/15 00:36:54.87,-453,5412,-15115,37,155,48,175,-118,-127,-96,-111
,836,2018/03/15 00:36:54.89,-31,4507,-15344,50,192,55,211,-142,-156,-121,-133
,837,2018/03/15 00:36:54.91,-21,4560,-15782,82,240,102,236,-158,-134,-161,-169
,838,2018/03/15 00:36:54.93,228,4004,-16143,160,264,198,265,-104,-67,-212,-231
,839,2018/03/15 00:36:54.95,374,3677,-16208,191,234,135,161,-43,-26,-212,-148
,840,2018/03/15 00:36:54.97,538,3144,-15905,122,149,183,223,-27,-40,-135,-203
,841,2018/03/15 00:36:54.99,511,3010,-15956,227,265,257,260,-38,-3,-246,-258
,842,2018/03/15 00:36:55.01,593,2941,-16142,263,229,242,211,34,31,-246,-226
,843,2018/03/15 00:36:55.03,601,2883,-16173,241,248,228,248,-7,-20,-244,-238
,844,2018/03/15 00:36:55.05,670,2888,-16231,229,238,221,219,-9,2,-233,-220
,845,2018/03/15 00:36:55.07,691,2848,-16169,179,173,110,112,6,-2,-176,-111
,846,2018/03/15 00:36:55.09,674,2828,-16031,64,70,61,78,-6,-17,-67,-69
,847,2018/03/15 00:36:55.11,708,2962,-15896,70,85,52,63,-15,-11,-77,-57
,848,2018/03/15 00:36:55.13,623,3195,-15859,48,69,39,64,-21,-25,-58,-51
,849,2018/03/15 00:36:55.15,566,3337,-15922,46,78,59,102,-32,-43,-62,-80
,850,2018/03/15 00:36:55.17,504,3586,-16100,52,94,63,101,-42,-38,-73,-82
,851,2018/03/15 00:36:55.19,482,3615,-16088,66,87,72,83,-21,-11,-76,-77
,852,2018/03/15 00:36:55.21,412,3701,-15995,77,81,72,61,-4,11,-79,-66
,853,2018/03/15 00:36:55.23,331,3849,-15903,95,74,98,73,21,25,-84,-85
,854,2018/03/15 00:36:55.25,261,3878,-15866,105,79,114,85,26,29,-92,-99
,855,2018/03/15 00:36:55.27,235,3961,-15822,90,59,98,70,31,28,-74,-84
,856,2018/03/15 00:36:55.29,205,3941,-15906,77,54,75,65,23,10,-65,-70
,857,2018/03/15 00:36:55.31,99,3984,-16039,76,86,72,93,-10,-21,-81,-82
,858,2018/03/15 00:36:55.33,45,3989,-15970,74,98,69,91,-24,-22,-86,-80
,859,2018/03/15 00:36:55.35,125,3966,-15600,62,85,63,103,-23,-40,-73,-83
,860,2018/03/15 00:36:55.37,-41,4147,-15518,35,90,32,99,-55,-67,-62,-65
,861,2018/03/15 00:36:55.39,-24,4363,-15743,30,102,30,99,-72,-69,-66,-64
,862,2018/03/15 00:36:55.41,-45,4428,-15792,32,105,10,90,-73,-80,-68,-50
,863,2018/03/15 00:36:55.43,-168,4420,-15757,7,100,6,101,-93,-95,-53,-53
,864,2018/03/15 00:36:55.45,-68,4533,-15752,1,94,1,98,-93,-97,-47,-49
,865,2018/03/15 00:36:55.47,-60,4658,-15793,-20,78,-23,81,-98,-104,-29,-29
,866,2018/03/15 00:36:55.49,24,4827,-15879,-27,83,-26,86,-110,-112,-28,-30
,867,2018/03/15 00:36:55.51,43,4922,-16008,-9,102,-17,87,-111,-104,-46,-35
,868,2018/03/15 00:36:55.53,14,4937,-15930,-18,88,-28,84,-106,-112,-35,-28
,869,2018/03/15 00:36:55.55,61,4805,-15676,-43,73,-34,83,-116,-117,-15,-24
,870,2018/03/15 00:36:55.57,5,4938,-15569,-41,69,-36,74,-110,-110,-14,-19
,871,2018/03/15 00:36:55.59,-183,5083,-15336,-30,84,-43,78,-114,-121,-27,-17
,872,2018/03/15 00:36:55.61,-277,5444,-15272,-45,82,-56,68,-127,-124,-18,-6
,873,2018/03/15 00:36:55.63,-381,5756,-15251,-49,80,-49,82,-129,-131,-15,-16
,874,2018/03/15 00:36:55.65,-548,5916,-15294,-58,69,-41,79,-127,-120,-5,-19
,875,2018/03/15 00:36:55.67,-575,6064,-15155,-35,75,-45,72,-110,-117,-20,-13
,876,2018/03/15 00:36:55.69,-708,6040,-14818,-48,73,-61,54,-121,-115,-12,3
,877,2018/03/15 00:36:55.71,-848,6397,-14760,-37,77,-48,65,-114,-113,-20,-8
,878,2018/03/15 00:36:55.73,-992,6874,-14822,-52,72,-55,66,-124,-121,-10,-5
,879,2018/03/15 00:36:55.75,-1029,7069,-14849,-70,43,-60,46,-113,-106,13,7
,880,2018/03/15 00:36:55.77,-1180,7172,-14707,-56,49,-46,59,-105,-105,3,-6
,881,2018/03/15 00:36:55.79,-1251,7352,-14438,-44,63,-47,54,-107,-101,-9,-3
,882,2018/03/15 00:36:55.81,-1290,7630,-14488,-21,74,-16,67,-95,-83,-26,-25
,883,2018/03/15 00:36:55.83,-1342,7655,-13876,-18,62,-23,68,-80,-91,-22,-22
,884,2018/03/15 00:36:55.85,-1516,8088,-13741,-26,72,2,104,-98,-102,-23,-53
,885,2018/03/15 00:36:55.87,-1690,8634,-13393,8,114,16,125,-106,-109,-61,-70
,886,2018/03/15 00:36:55.89,-1963,8931,-13301,20,133,-9,110,-113,-119,-76,-50
,887,2018/03/15 00:36:55.91,-2014,9237,-13054,-24,105,-34,96,-129,-130,-40,-31
,888,2018/03/15 00:36:55.93,-2122,9568,-12819,-31,98,-28,107,-129,-135,-33,-39
,889,2018/03/15 00:36:55.95,-2208,9793,-12554,-33,100,-24,112,-133,-136,-33,-44
,890,2018/03/15 00:36:55.97,-2406,10134,-12249,-14,118,-8,119,-132,-127,-52,-55
,891,2018/03/15 00:36:55.99,-2401,10481,-12154,-4,126,-14,120,-130,-134,-61,-53
,892,2018/03/15 00:36:56.01,-2610,10965,-11897,-23,119,-46,98,-142,-144,-48,-26
,893,2018/03/15 00:36:56.03,-2653,11251,-11673,-55,96,-55,105,-151,-160,-20,-25
,894,2018/03/15 00:36:56.05,-2769,11469,-11574,-80,83,-98,64,-163,-162,-1,17
,895,2018/03/15 00:36:56.07,-2820,11580,-11413,-115,41,-119,30,-156,-149,37,44
,896,2018/03/15 00:36:56.09,-2892,11725,-11412,-124,21,-137,-5,-145,-132,51,71
,897,2018/03/15 00:36:56.11,-2838,11828,-11352,-140,-12,-128,6,-128,-134,76,61
,898,2018/03/15 00:36:56.13,-2945,11779,-11258,-130,8,-125,25,-138,-150,61,50
,899,2018/03/15 00:36:56.15,-2893,11893,-11222,-130,17,-121,25,-147,-146,56,48
,900,2018/03/15 00:36:56.17,-2971,11779,-11162,-91,58,-75,80,-149,-155,16,-2
,901,2018/03/15 00:36:56.19,-2986,11823,-11131,-80,75,-92,60,-155,-152,2,16
,902,2018/03/15 00:36:56.21,-3090,11703,-11113,-96,60,-104,50,-156,-154,18,27
,903,2018/03/15 00:36:56.23,-2964,11541,-11220,-118,28,-126,24,-146,-150,45,51
,904,2018/03/15 00:36:56.25,-2953,11577,-10987,-137,23,-129,37,-160,-166,57,46
,905,2018/03/15 00:36:56.27,-3030,11732,-10973,-125,38,-129,23,-163,-152,43,53
,906,2018/03/15 00:36:56.29,-3056,11725,-11083,-121,26,-111,37,-147,-148,47,37
,907,2018/03/15 00:36:56.31,-2942,11649,-11145,-100,47,-98,45,-147,-143,26,26
,908,2018/03/15 00:36:56.33,-2976,11639,-11102,-96,44,-82,61,-140,-143,26,10
,909,2018/03/15 00:36:56.35,-2967,11624,-11111,-77,61,-65,69,-138,-134,8,-2
,910,2018/03/15 00:36:56.37,-3019,11553,-11164,-64,69,-69,66,-133,-135,-2,1
,911,2018/03/15 00:36:56.39,-2865,11487,-11144,-57,76,-58,74,-133,-132,-9,-8
,912,2018/03/15 00:36:56.41,-2884,11377,-11053,-63,74,-63,78,-137,-141,-5,-7
,913,2018/03/15 00:36:56.43,-2988,11257,-11110,-67,72,-63,78,-139,-141,-2,-7
,914,2018/03/15 00:36:56.45,-2849,11233,-11263,-64,75,-70,67,-139,-137,-5,1
,915,2018/03/15 00:36:56.47,-2915,10962,-11128,-70,68,-69,66,-138,-135,1,1
,916,2018/03/15 00:36:56.49,-2769,10541,-11464,-52,88,-69,74,-140,-143,-18,-2
,917,2018/03/15 00:36:56.51,-2670,10066,-11429,-66,78,-61,79,-144,-140,-6,-9
,918,2018/03/15 00:36:56.53,-2460,9947,-11331,-50,88,-38,103,-138,-141,-19,-32
,919,2018/03/15 00:36:56.55,-1993,9445,-11650,-44,114,-57,112,-158,-169,-35,-27
,920,2018/03/15 00:36:56.57,-1546,9814,-11703,-76,101,-86,78,-177,-164,-12,4
,921,2018/03/15 00:36:56.59,-877,10320,-11643,-73,81,-74,74,-154,-148,-4,0
,922,2018/03/15 00:36:56.61,-421,10977,-11698,-82,59,-83,53,-141,-136,11,15
,923,2018/03/15 00:36:56.63,-118,11023,-12048,-95,34,-89,38,-129,-127,30,25
,924,2018/03/15 00:36:56.65,361,11565,-12242,-85,35,-82,28,-120,-110,25,27
,925,2018/03/15 00:36:56.67,815,12260,-12151,-62,42,-72,29,-104,-101,10,21
,926,2018/03/15 00:36:56.69,1065,12513,-11963,-71,35,-67,39,-106,-106,18,14
,927,2018/03/15 00:36:56.71,1202,12614,-11965,-66,38,-46,56,-104,-102,14,-5
,928,2018/03/15 00:36:56.73,1100,12381,-12050,-56,42,-50,54,-98,-104,7,-2
,929,2018/03/15 00:36:56.75,1213,12412,-12165,-35,68,-35,64,-103,-99,-16,-14
,930,2018/03/15 00:36:56.77,1278,12237,-11971,-28,68,-42,46,-96,-88,-20,-2
,931,2018/03/15 00:36:56.79,1219,12149,-11939,-32,60,-22,76,-92,-98,-14,-27
,932,2018/03/15 00:36:56.81,1260,12004,-11981,-21,72,-4,87,-93,-91,-25,-41
,933,2018/03/15 00:36:56.83,1166,11896,-12005,-25,61,-32,61,-86,-93,-18,-14
,934,2018/03/15 00:36:56.85,1164,11517,-11959,-29,69,-38,61,-98,-99,-20,-11
,935,2018/03/15 00:36:56.87,1065,11493,-12023,-22,80,-31,68,-102,-99,-29,-18
,936,2018/03/15 00:36:56.89,1072,11357,-12044,-24,70,-2,86,-94,-88,-23,-42
,937,2018/03/15 00:36:56.91,1112,11390,-12107,-23,62,-9,79,-85,-88,-19,-35
,938,2018/03/15 00:36:56.93,1056,11442,-12274,-15,67,8,84,-82,-76,-26,-46
,939,2018/03/15 00:36:56.95,1023,11326,-12350,21,81,7,57,-60,-50,-51,-32
,940,2018/03/15 00:36:56.97,933,11340,-12350,20,80,10,76,-60,-66,-50,-43
,941,2018/03/15 00:36:56.99,902,11529,-12455,4,74,6,84,-70,-78,-39,-45
,942,2018/03/15 00:36:57.01,820,11630,-12224,-11,70,-5,89,-81,-94,-29,-42
,943,2018/03/15 00:36:57.03,502,11506,-12218,-8,86,-16,79,-94,-95,-39,-31
,944,2018/03/15 00:36:57.05,359,11378,-12325,-19,83,-30,73,-102,-103,-32,-21
,945,2018/03/15 00:36:57.07,70,11428,-12353,-20,88,-29,80,-108,-109,-34,-25
,946,2018/03/15 00:36:57.09,-103,11249,-12435,-39,73,-35,80,-112,-115,-17,-22
,947,2018/03/15 00:36:57.11,-439,11086,-12415,-42,71,-35,84,-113,-119,-14,-24
,948,2018/03/15 00:36:57.13,-693,10783,-12330,-35,85,-41,78,-120,-119,-25,-18
,949,2018/03/15 00:36:57.15,-982,10573,-12233,-44,79,-62,66,-123,-128,-17,-2
,950,2018/03/15 00:36:57.17,-1356,10396,-12232,-61,74,-61,74,-135,-135,-6,-6
,951,2018/03/15 00:36:57.19,-1724,10288,-12182,-56,80,-42,97,-136,-139,-12,-27
,952,2018/03/15 00:36:57.21,-2131,10288,-12303,-46,90,-43,95,-136,-138,-22,-26
,953,2018/03/15 00:36:57.23,-2453,10241,-12387,-51,91,-64,85,-142,-149,-20,-10
,954,2018/03/15 00:36:57.25,-2705,10464,-12405,-56,94,-56,92,-150,-148,-19,-18
,955,2018/03/15 00:36:57.27,-2898,10599,-12338,-55,98,-69,90,-153,-159,-21,-10
,956,2018/03/15 00:36:57.29,-3263,10582,-12362,-74,85,-70,90,-159,-160,-5,-10
,957,2018/03/15 00:36:57.31,-3450,10554,-12502,-71,92,-83,81,-163,-164,-10,1
,958,2018/03/15 00:36:57.33,-3843,10038,-12462,-89,76,-95,65,-165,-160,6,15
,959,2018/03/15 00:36:57.35,-4111,9380,-12682,-89,76,-94,71,-165,-165,6,11
,960,2018/03/15 00:36:57.37,-4445,8609,-12594,-90,82,-102,71,-172,-173,4,15
,961,2018/03/15 00:36:57.39,-4766,8544,-12532,-106,67,-98,76,-173,-174,19,11
,962,2018/03/15 00:36:57.41,-5114,8066,-12755,-95,84,-85,94,-179,-179,5,-4
,963,2018/03/15 00:36:57.43,-5328,7303,-12873,-80,98,-73,104,-178,-177,-9,-15
,964,2018/03/15 00:36:57.45,-5623,7248,-12852,-68,105,-71,103,-173,-174,-18,-16
,965,2018/03/15 00:36:57.47,-5849,6669,-12835,-71,107,-75,106,-178,-181,-18,-15
,966,2018/03/15 00:36:57.49,-6034,6622,-12909,-80,107,-79,107,-187,-186,-13,-14
,967,2018/03/15 00:36:57.51,-6286,6252,-13021,-80,102,-80,97,-182,-177,-11,-8
,968,2018/03/15 00:36:57.53,-6491,5900,-13087,-86,87,-86,83,-173,-169,0,1
,969,2018/03/15 00:36:57.55,-6543,5689,-13040,-87,83,-80,95,-170,-175,2,-7
,970,2018/03/15 00:36:57.57,-6618,5837,-13010,-72,107,-69,105,-179,-174,-17,-18
,971,2018/03/15 00:36:57.59,-6675,6161,-13083,-58,110,-51,112,-168,-163,-26,-30
,972,2018/03/15 00:36:57.61,-6605,6279,-13215,-43,114,-33,125,-157,-158,-35,-46
,973,2018/03/15 00:36:57.63,-6480,6557,-13131,-42,121,-47,118,-163,-165,-39,-35
,974,2018/03/15 00:36:57.65,-6448,6541,-13027,-52,110,-54,112,-162,-166,-29,-29
,975,2018/03/15 00:36:57.67,-6310,6718,-13058,-50,119,-56,111,-169,-167,-34,-27
,976,2018/03/15 00:36:57.69,-6125,6934,-13109,-52,104,-53,98,-156,-151,-26,-22
,977,2018/03/15 00:36:57.71,-6043,7171,-13128,-60,90,-54,95,-150,-149,-15,-20
,978,2018/03/15 00:36:57.73,-5836,7219,-13334,-64,78,-57,80,-142,-137,-7,-11
,979,2018/03/15 00:36:57.75,-5627,7310,-13311,-53,77,-44,86,-130,-130,-12,-21
,980,2018/03/15 00:36:57.77,-5568,7396,-13223,-41,83,-51,72,-124,-123,-21,-10
,981,2018/03/15 00:36:57.79,-5368,7393,-13106,-45,80,-50,75,-125,-125,-17,-12
,982,2018/03/15 00:36:57.81,-5138,7446,-13016,-51,71,-42,85,-122,-127,-10,-21
,983,2018/03/15 00:36:57.83,-4893,7684,-13158,-44,85,-47,75,-129,-122,-20,-14
,984,2018/03/15 00:36:57.85,-4558,8185,-13375,-46,75,-45,69,-121,-114,-14,-12
,985,2018/03/15 00:36:57.87,-4358,8486,-13242,-47,69,-43,81,-116,-124,-11,-19
,986,2018/03/15 00:36:57.89,-4216,8407,-13316,-37,87,-21,97,-124,-118,-25,-38
,987,2018/03/15 00:36:57.91,-4052,8403,-13345,-20,97,-30,89,-117,-119,-38,-29
,988,2018/03/15 00:36:57.93,-3886,8334,-13220,-32,86,-28,81,-118,-109,-27,-26
,989,2018/03/15 00:36:57.95,-3518,8498,-13141,-12,93,-10,97,-105,-107,-40,-43
,990,2018/03/15 00:36:57.97,-3277,8995,-12972,-13,95,-6,98,-108,-104,-41,-46
,991,2018/03/15 00:36:57.99,-2897,9429,-13015,-5,96,-10,92,-101,-102,-45,-41
,992,2018/03/15 00:36:58.01,-2810,9485,-13110,-19,86,-25,84,-105,-109,-33,-29
,993,2018/03/15 00:36:58.03,-2566,9618,-13089,-27,86,-36,71,-113,-107,-29,-17
,994,2018/03/15 00:36:58.05,-2316,9779,-12886,-32,65,-20,70,-97,-90,-16,-25
,995,2018/03/15 00:36:58.07,-2086,10075,-12975,-22,71,-30,77,-93,-107,-24,-23
,996,2018/03/15 00:36:58.09,-1804,10217,-13082,-40,73,-38,73,-113,-111,-16,-17
,997,2018/03/15 00:36:58.11,-1711,10360,-13109,-32,73,-34,65,-105,-99,-20,-15
,998,2018/03/15 00:36:58.13,-1575,10379,-13037,-22,83,-29,73,-105,-102,-30,-22
,999,2018/03/15 00:36:58.15,-1482,10537,-13052,-29,71,-31,63,-100,-94,-21,-16
,1000,2018/03/15 00:36:58.17,-1296,10652,-12976,-43,60,-42,64,-103,-106,-8,-11
,1001,2018/03/15 00:36:58.19,-1270,10671,-13068,-47,59,-34,66,-106,-100,-6,-16
,1002,2018/03/15 00:36:58.21,-1240,10688,-12985,-30,74,-33,74,-104,-107,-22,-20
,1003,2018/03/15 00:36:58.23,-1205,10733,-12975,-24,90,-22,87,-114,-109,-33,-32
,1004,2018/03/15 00:36:58.25,-1216,10611,-12951,-18,84,-8,91,-102,-99,-33,-41
,1005,2018/03/15 00:36:58.27,-1223,10594,-12857,-17,82,-20,87,-99,-107,-32,-33
,1006,2018/03/15 00:36:58.29,-1264,10452,-12890,-27,81,-22,85,-108,-107,-27,-31
,1007,2018/03/15 00:36:58.31,-1245,10127,-12963,-16,96,-41,74,-112,-115,-40,-16
,1008,2018/03/15 00:36:58.33,-1265,10025,-12974,-46,74,-51,67,-120,-118,-14,-8
,1009,2018/03/15 00:36:58.35,-1272,9918,-12926,-61,54,-56,67,-115,-123,3,-5
,1010,2018/03/15 00:36:58.37,-1269,9837,-12881,-55,69,-35,86,-124,-121,-7,-25
,1011,2018/03/15 00:36:58.39,-1275,9687,-12944,-31,89,-38,84,-120,-122,-29,-23
,1012,2018/03/15 00:36:58.41,-1327,9606,-12910,-31,96,-30,91,-127,-121,-32,-30
,1013,2018/03/15 00:36:58.43,-1374,9581,-12929,-22,92,-17,94,-114,-111,-35,-38
,1014,2018/03/15 00:36:58.45,-1470,9673,-12887,-26,85,-26,93,-111,-119,-29,-33
,1015,2018/03/15 00:36:58.47,-1489,9698,-12856,-33,87,-27,94,-120,-121,-27,-33
,1016,2018/03/15 00:36:58.49,-1461,9740,-12880,-25,97,-22,96,-122,-118,-36,-37
,1017,2018/03/15 00:36:58.51,-1485,9976,-12985,-14,100,-31,73,-114,-104,-43,-21
,1018,2018/03/15 00:36:58.53,-1448,10004,-12968,-30,68,-14,89,-98,-103,-19,-37
,1019,2018/03/15 00:36:58.55,-1498,10004,-12928,-27,82,-16,98,-109,-114,-27,-41
,1020,2018/03/15 00:36:58.57,-1466,10055,-12771,-28,80,-25,89,-108,-114,-26,-32
,1021,2018/03/15 00:36:58.59,-1547,9995,-12656,-36,83,-57,65,-119,-122,-23,-4
,1022,2018/03/15 00:36:58.61,-1604,10111,-12769,-46,78,-42,75,-124,-117,-16,-16
,1023,2018/03/15 00:36:58.63,-1614,10075,-12835,-27,86,-21,95,-113,-116,-29,-37
,1024,2018/03/15 00:36:58.65,-1749,10041,-12827,-37,80,-33,81,-117,-114,-21,-24
,1025,2018/03/15 00:36:58.67,-1729,9944,-12827,-24,86,-14,99,-110,-113,-31,-42
,1026,2018/03/15 00:36:58.69,-1705,9898,-12732,-18,104,-33,90,-122,-123,-43,-28
,1027,2018/03/15 00:36:58.71,-1770,9894,-12778,-24,98,-20,100,-122,-120,-37,-40
,1028,2018/03/15 00:36:58.73,-1716,9831,-12790,-23,97,-30,92,-120,-122,-37,-31
,1029,2018/03/15 00:36:58.75,-1691,9919,-12791,-45,79,-40,92,-124,-132,-17,-26
,1030,2018/03/15 00:36:58.77,-1703,9898,-12852,-34,95,-27,99,-129,-126,-30,-36
,1031,2018/03/15 00:36:58.79,-1724,10008,-12798,-20,106,-34,93,-126,-127,-43,-29
,1032,2018/03/15 00:36:58.81,-1740,9962,-12795,-39,98,-40,97,-137,-137,-29,-28
,1033,2018/03/15 00:36:58.83,-1739,9974,-12783,-30,100,-25,103,-130,-128,-35,-39
,1034,2018/03/15 00:36:58.85,-1781,10061,-12796,-38,90,-35,94,-128,-129,-26,-29
,1035,2018/03/15 00:36:58.87,-1835,10110,-12782,-38,94,-40,89,-132,-129,-28,-24
,1036,2018/03/15 00:36:58.89,-1796,10134,-12736,-34,96,-40,90,-130,-130,-31,-25
,1037,2018/03/15 00:36:58.91,-1803,10241,-12744,-23,107,-10,118,-130,-128,-42,-54
,1038,2018/03/15 00:36:58.93,-1818,10248,-12765,3,128,14,143,-125,-129,-65,-78
,1039,2018/03/15 00:36:58.95,-1923,10304,-12777,16,141,-4,124,-125,-128,-78,-60
,1040,2018/03/15 00:36:58.97,-2022,10355,-12677,-16,118,-27,101,-134,-128,-51,-37
,1041,2018/03/15 00:36:58.99,-2000,10336,-12643,-12,118,-28,100,-130,-128,-53,-36
,1042,2018/03/15 00:36:59.01,-1987,10332,-12623,-34,97,-42,83,-131,-125,-31,-20
,1043,2018/03/15 00:36:59.03,-2038,10262,-12623,-56,69,-60,64,-125,-124,-6,-2
,1044,2018/03/15 00:36:59.05,-2096,10178,-12574,-83,34,-85,32,-117,-117,24,26
,1045,2018/03/15 00:36:59.07,-2183,10031,-12513,-90,30,-102,16,-120,-118,30,43
,1046,2018/03/15 00:36:59.09,-2267,9916,-12570,-113,7,-123,-3,-120,-120,53,63
,1047,2018/03/15 00:36:59.11,-2452,9981,-12497,-126,-3,-131,-9,-123,-122,64,70
,1048,2018/03/15 00:36:59.13,-2489,9958,-12492,-206,-90,-261,-145,-116,-116,148,203
,1049,2018/03/15 00:36:59.15,-2525,9924,-12515,-239,-128,-184,-77,-111,-107,183,130
,1050,2018/03/15 00:36:59.17,-2489,9897,-12480,-151,-44,-136,-31,-107,-105,97,83
,1051,2018/03/15 00:36:59.19,-2508,9937,-12501,-119,-10,-112,2,-109,-114,64,55
,1052,2018/03/15 00:36:59.21,-2471,9986,-12512,-101,16,-89,28,-117,-117,42,30
,1053,2018/03/15 00:36:59.23,-2413,10073,-12486,-91,23,-78,41,-114,-119,34,18
,1054,2018/03/15 00:36:59.25,-2444,10194,-12522,-70,51,-64,60,-121,-124,9,2
,1055,2018/03/15 00:36:59.27,-2463,10251,-12562,-59,66,-64,56,-125,-120,-3,4
,1056,2018/03/15 00:36:59.29,-2439,10267,-12412,-52,64,-45,64,-116,-109,-6,-9
,1057,2018/03/15 00:36:59.31,-2452,10335,-12387,-44,65,-36,75,-109,-111,-10,-19
,1058,2018/03/15 00:36:59.33,-2442,10288,-12407,-37,78,-34,89,-115,-123,-20,-27
,1059,2018/03/15 00:36:59.35,-2614,10333,-12467,-44,86,-37,92,-130,-129,-21,-27
,1060,2018/03/15 00:36:59.37,-2500,10286,-12379,-38,87,-37,90,-125,-127,-24,-26
,1061,2018/03/15 00:36:59.39,-2501,10331,-12349,-35,93,-42,90,-128,-132,-29,-24
,1062,2018/03/15 00:36:59.41,-2556,10358,-12398,-49,78,-47,78,-127,-125,-14,-15
,1063,2018/03/15 00:36:59.43,-2557,10358,-12453,-45,80,-47,88,-125,-135,-17,-20
,1064,2018/03/15 00:36:59.45,-2533,10378,-12435,-48,86,-43,84,-134,-127,-19,-20
,1065,2018/03/15 00:36:59.47,-2478,10343,-12467,-42,83,-54,70,-125,-124,-20,-8
,1066,2018/03/15 00:36:59.49,-2487,10349,-12381,-49,77,-45,79,-126,-124,-14,-17
,1067,2018/03/15 00:36:59.51,-2494,10300,-12472,-42,76,-36,81,-118,-117,-17,-22
,1068,2018/03/15 00:36:59.53,-2529,10353,-12461,-40,75,-31,86,-115,-117,-17,-27
,1069,2018/03/15 00:36:59.55,-2451,10274,-12464,-35,81,-40,78,-116,-118,-23,-19
,1070,2018/03/15 00:36:59.57,-2464,10269,-12411,-34,84,-34,81,-118,-115,-25,-23
,1071,2018/03/15 00:36:59.59,-2518,10185,-12398,-39,82,-46,82,-121,-128,-21,-18
,1072,2018/03/15 00:36:59.61,-2429,10193,-12471,-47,83,-38,93,-130,-131,-18,-27
,1073,2018/03/15 00:36:59.63,-2450,10269,-12458,-44,85,-42,89,-129,-131,-20,-23
,1074,2018/03/15 00:36:59.65,-2429,10340,-12528,-44,90,-59,80,-134,-139,-23,-10
,1075,2018/03/15 00:36:59.67,-2441,10265,-12507,-62,88,-55,88,-150,-143,-13,-16
,1076,2018/03/15 00:36:59.69,-2394,10314,-12460,0,134,98,227,-134,-129,-67,-162
,1077,2018/03/15 00:36:59.71,-2407,10219,-12467,171,282,160,236,-111,-76,-226,-198
,1078,2018/03/15 00:36:59.73,-2463,10292,-12469,66,91,-43,-60,-25,17,-78,51
,1079,2018/03/15 00:36:59.75,-2468,10373,-12483,-132,-163,-189,-218,31,29,147,203
,1080,2018/03/15 00:36:59.77,-2482,10333,-12436,-190,-208,-175,-192,18,17,199,183
,1081,2018/03/15 00:36:59.79,-2554,10363,-12320,-131,-144,-90,-99,13,9,137,94
,1082,2018/03/15 00:36:59.81,-2482,10384,-12401,-61,-51,-42,-12,-10,-30,56,27
,1083,2018/03/15 00:36:59.83,-2469,10337,-12358,-34,19,-17,55,-53,-72,7,-19
,1084,2018/03/15 00:36:59.85,-2512,10271,-12385,-22,62,-22,68,-84,-90,-20,-23
,1085,2018/03/15 00:36:59.87,-2462,10246,-12460,-19,80,-18,86,-99,-104,-30,-34
,1086,2018/03/15 00:36:59.89,-2463,10283,-12466,-10,99,-13,102,-109,-115,-44,-44
,1087,2018/03/15 00:36:59.91,-2421,10248,-12388,-31,86,-23,100,-117,-123,-27,-38
,1088,2018/03/15 00:36:59.93,-2387,10251,-12444,-21,104,-24,102,-125,-126,-41,-39
,1089,2018/03/15 00:36:59.95,-2442,10305,-12468,-26,101,-22,104,-127,-126,-37,-41
,1090,2018/03/15 00:36:59.97,-2394,10311,-12457,-21,104,-35,87,-125,-122,-41,-26
,1091,2018/03/15 00:36:59.99,-2441,10302,-12549,-44,78,-37,89,-122,-126,-17,-26
,1092,2018/03/15 00:37:00.01,-2441,10391,-12347,-33,90,-28,92,-123,-120,-28,-32
,1093,2018/03/15 00:37:00.03,-2427,10384,-12337,-27,94,-23,100,-121,-123,-33,-38
,1094,2018/03/15 00:37:00.05,-2379,10377,-12445,-25,96,-39,80,-121,-119,-35,-20
,1095,2018/03/15 00:37:00.07,-2384,10359,-12444,-42,77,-44,75,-119,-119,-17,-15
,1096,2018/03/15 00:37:00.09,-2459,10329,-12399,-39,79,-23,94,-118,-117,-20,-35
,1097,2018/03/15 00:37:00.11,-2401,10394,-12334,-13,97,-9,99,-110,-108,-42,-45
,1098,2018/03/15 00:37:00.13,-2465,10358,-12346,-20,94,-25,96,-114,-121,-37,-35
,1099,2018/03/15 00:37:00.15,-2412,10353,-12382,-18,109,-12,114,-127,-126,-45,-51
,1100,2018/03/15 00:37:00.17,-2428,10321,-12401,-4,126,3,138,-130,-135,-61,-70
,1101,2018/03/15 00:37:00.19,-2475,10316,-12375,-1,135,5,142,-136,-137,-67,-73
,1102,2018/03/15 00:37:00.21,-2446,10300,-12397,-4,127,-10,125,-131,-135,-61,-57
,1103,2018/03/15 00:37:00.23,-2575,10342,-12323,-20,114,-33,95,-134,-128,-47,-31
,1104,2018/03/15 00:37:00.25,-2525,10334,-12373,-24,107,-19,110,-131,-129,-41,-45
,1105,2018/03/15 00:37:00.27,-2465,10334,-12338,-5,123,-6,118,-128,-124,-59,-56
,1106,2018/03/15 00:37:00.29,-2508,10330,-12404,-16,108,-23,109,-124,-132,-46,-43
,1107,2018/03/15 00:37:00.31,-2407,10395,-12432,-32,102,-26,103,-134,-129,-35,-38
,1108,2018/03/15 00:37:00.33,-2433,10380,-12416,-13,108,-16,104,-121,-120,-47,-44
,1109,2018/03/15 00:37:00.35,-2464,10348,-12351,-19,109,-28,103,-128,-131,-45,-37
,1110,2018/03/15 00:37:00.37,-2427,10384,-12375,-24,105,-17,112,-129,-129,-40,-47
,1111,2018/03/15 00:37:00.39,-2443,10329,-12432,-10,113,2,124,-123,-122,-51,-63
,1112,2018/03/15 00:37:00.41,-2492,10393,-12405,2,117,0,118,-115,-118,-59,-59
,1113,2018/03/15 00:37:00.43,-2450,10377,-12365,-7,110,-20,100,-117,-120,-51,-40
,1114,2018/03/15 00:37:00.45,-2476,10323,-12381,-11,118,0,132,-129,-132,-53,-66
,1115,2018/03/15 00:37:00.47,-2486,10264,-12410,4,136,-2,132,-132,-134,-70,-65
,1116,2018/03/15 00:37:00.49,-2451,10295,-12347,-12,120,-13,121,-132,-134,-54,-54
,1117,2018/03/15 00:37:00.51,-2434,10289,-12352,-14,116,-5,118,-130,-123,-51,-56
,1118,2018/03/15 00:37:00.53,-2458,10295,-12332,5,122,-2,115,-117,-117,-63,-56
,1119,2018/03/15 00:37:00.55,-2459,10332,-12381,-2,123,-14,115,-125,-129,-60,-50
,1120,2018/03/15 00:37:00.57,-2408,10397,-12350,-17,112,-19,109,-129,-128,-47,-45
,1121,2018/03/15 00:37:00.59,-2500,10369,-12359,-26,99,-25,99,-125,-124,-36,-37
,1122,2018/03/15 00:37:00.61,-2481,10380,-12394,-23,104,-21,99,-127,-120,-40,-39
,1123,2018/03/15 00:37:00.63,-2503,10377,-12337,-23,99,-22,100,-122,-122,-38,-39
,1124,2018/03/15 00:37:00.65,-2529,10384,-12318,-11,115,3,130,-126,-127,-52,-66
,1125,2018/03/15 00:37:00.67,-2570,10443,-12380,-1,123,-8,113,-124,-121,-61,-52
,1126,2018/03/15 00:37:00.69,-2457,10385,-12360,-21,97,-14,102,-118,-116,-38,-44
,1127,2018/03/15 00:37:00.71,-2555,10416,-12382,-10,103,-9,104,-113,-113,-46,-47
,1128,2018/03/15 00:37:00.73,-2485,10417,-12267,-4,112,-7,106,-116,-113,-54,-49
,1129,2018/03/15 00:37:00.75,-2489,10344,-12247,-13,104,-17,100,-117,-117,-45,-41
,1130,2018/03/15 00:37:00.77,-2526,10433,-12333,-17,101,-10,113,-118,-123,-42,-51
,1131,2018/03/15 00:37:00.79,-2502,10362,-12425,-13,111,-12,114,-124,-126,-49,-51
,1132,2018/03/15 00:37:00.81,-2535,10407,-12343,-9,116,-1,121,-125,-122,-53,-60
,1133,2018/03/15 00:37:00.83,-2439,10391,-12351,10,131,-3,116,-121,-119,-70,-56
,1134,2018/03/15 00:37:00.85,-2504,10397,-12371,-8,113,-5,117,-121,-122,-52,-56
,1135,2018/03/15 00:37:00.87,-2489,10358,-12326,-3,109,-14,85,-112,-99,-53,-35
,1136,2018/03/15 00:37:00.89,-2516,10291,-12332,-52,35,-78,6,-87,-84,8,36
,1137,2018/03/15 00:37:00.91,-2450,10374,-12285,-86,1,-83,9,-87,-92,42,37
,1138,2018/03/15 00:37:00.93,-2559,10376,-12334,-76,19,-78,14,-95,-92,28,32
,1139,2018/03/15 00:37:00.95,-2512,10430,-12343,-66,30,-54,50,-96,-104,18,2
,1140,2018/03/15 00:37:00.97,-2500,10468,-12299,-45,63,-25,86,-108,-111,-9,-30
,1141,2018/03/15 00:37:00.99,-2529,10397,-12327,-10,98,9,116,-108,-107,-44,-62
,1142,2018/03/15 00:37:01.01,-2591,10398,-12329,10,117,5,113,-107,-108,-63,-59
,1143,2018/03/15 00:37:01.03,-2536,10360,-12371,26,130,29,137,-104,-108,-78,-83
,1144,2018/03/15 00:37:01.05,-2533,10386,-12357,25,137,16,128,-112,-112,-81,-72
,1145,2018/03/15 00:37:01.07,-2433,10378,-12374,10,119,12,120,-109,-108,-64,-66
,1146,2018/03/15 00:37:01.09,-2454,10473,-12366,12,117,11,113,-105,-102,-64,-62
,1147,2018/03/15 00:37:01.11,-2436,10401,-12353,7,112,-1,104,-105,-105,-59,-51
,1148,2018/03/15 00:37:01.13,-2493,10417,-12359,3,109,2,108,-106,-106,-56,-55
,1149,2018/03/15 00:37:01.15,-2465,10357,-12312,3,110,-3,107,-107,-110,-56,-52
,1150,2018/03/15 00:37:01.17,-2549,10401,-12345,-18,89,-13,95,-107,-108,-35,-41
,1151,2018/03/15 00:37:01.19,-2463,10348,-12352,-12,98,-15,96,-110,-111,-43,-40
,1152,2018/03/15 00:37:01.21,-2516,10402,-12380,-12,98,-8,99,-110,-107,-43,-45
,1153,2018/03/15 00:37:01.23,-2371,10420,-12375,-4,110,-10,104,-114,-114,-53,-47
,1154,2018/03/15 00:37:01.25,-2444,10382,-12346,-18,94,-21,96,-112,-117,-38,-37
,1155,2018/03/15 00:37:01.27,-2479,10391,-12370,-33,85,-32,86,-118,-118,-26,-27
,1156,2018/03/15 00:37:01.29,-2410,10375,-12356,-31,86,-29,85,-117,-114,-27,-28
,1157,2018/03/15 00:37:01.31,-2456,10394,-12373,-22,91,-24,90,-113,-114,-34,-33
,1158,2018/03/15 00:37:01.33,-2434,10411,-12409,-22,96,-25,94,-118,-119,-37,-34
,1159,2018/03/15 00:37:01.35,-2506,10377,-12323,-24,90,-18,90,-114,-108,-33,-36
,1160,2018/03/15 00:37:01.37,-2459,10395,-12321,-20,78,-17,83,-98,-100,-29,-33
,1161,2018/03/15 00:37:01.39,-2500,10454,-12359,-16,87,-18,86,-103,-104,-35,-34
,1162,2018/03/15 00:37:01.41,-2489,10363,-12424,-14,99,-21,91,-113,-112,-42,-35
,1163,2018/03/15 00:37:01.43,-2481,10405,-12358,-18,93,-10,101,-111,-111,-37,-45
,1164,2018/03/15 00:37:01.45,-2495,10385,-12273,-24,92,-22,94,-116,-116,-34,-36
,1165,2018/03/15 00:37:01.47,-2535,10373,-12260,-28,79,-26,85,-107,-111,-25,-29
,1166,2018/03/15 00:37:01.49,-2430,10453,-12407,-33,81,-41,72,-114,-113,-24,-15
,1167,2018/03/15 00:37:01.51,-2483,10468,-12334,-37,77,-36,81,-114,-117,-20,-22
,1168,2018/03/15 00:37:01.53,-2462,10422,-12371,-28,91,-18,99,-119,-117,-31,-40
,1169,2018/03/15 00:37:01.55,-2518,10417,-12325,-20,95,-28,91,-115,-119,-37,-31
,1170,2018/03/15 00:37:01.57,-2506,10359,-12372,-48,72,-47,73,-120,-120,-12,-13
,1171,2018/03/15 00:37:01.59,-2595,10345,-12366,-28,85,-18,88,-113,-106,-28,-35
,1172,2018/03/15 00:37:01.61,-2501,10384,-12376,-10,101,-6,104,-111,-110,-45,-49
,1173,2018/03/15 00:37:01.63,-2492,10384,-12348,3,115,4,119,-112,-115,-59,-61
,1174,2018/03/15 00:37:01.65,-2519,10403,-12402,-14,98,-15,103,-112,-118,-42,-44
,1175,2018/03/15 00:37:01.67,-2498,10398,-12329,-13,104,-20,94,-117,-114,-45,-37
,1176,2018/03/15 00:37:01.69,-2569,10315,-12304,-22,92,-27,90,-114,-117,-35,-31
,1177,2018/03/15 00:37:01.71,-2538,10311,-12386,-20,104,-21,105,-124,-126,-42,-42
,1178,2018/03/15 00:37:01.73,-2445,10315,-12391,-21,105,-18,110,-126,-128,-42,-46
,1179,2018/03/15 00:37:01.75,-2430,10333,-12413,-23,108,-24,106,-131,-130,-42,-41
,1180,2018/03/15 00:37:01.77,-2432,10313,-12438,-25,98,-24,94,-123,-118,-36,-35
,1181,2018/03/15 00:37:01.79,-2459,10417,-12416,-19,97,-23,88,-116,-111,-39,-32
,1182,2018/03/15 00:37:01.81,-2477,10343,-12381,-20,84,-18,87,-104,-105,-32,-34
,1183,2018/03/15 00:37:01.83,-2539,10309,-12401,-24,85,-16,99,-109,-115,-30,-41
,1184,2018/03/15 00:37:01.85,-2479,10295,-12374,-17,94,-21,96,-111,-117,-38,-37
,1185,2018/03/15 00:37:01.87,-2481,10281,-12308,-24,91,-28,79,-115,-107,-33,-25
,1186,2018/03/15 00:37:01.89,-2429,10341,-12389,-19,92,-30,82,-111,-112,-36,-26
,1187,2018/03/15 00:37:01.91,-2461,10271,-12414,-31,87,-30,89,-118,-119,-28,-29
,1188,2018/03/15 00:37:01.93,-2429,10325,-12403,-29,86,-23,92,-115,-115,-28,-34
,1189,2018/03/15 00:37:01.95,-2457,10301,-12441,-22,91,-22,91,-113,-113,-34,-34
,1190,2018/03/15 00:37:01.97,-2448,10324,-12447,-23,91,-19,94,-114,-113,-34,-37
,1191,2018/03/15 00:37:01.99,-2390,10301,-12440,-10,104,-11,99,-114,-110,-47,-44
,1192,2018/03/15 00:37:02.01,-2389,10313,-12403,-13,96,-14,95,-109,-109,-41,-40
,1193,2018/03/15 00:37:02.03,-2472,10317,-12410,-10,100,-1,114,-110,-115,-45,-56
,1194,2018/03/15 00:37:02.05,-2454,10332,-12475,-6,108,-4,108,-114,-112,-51,-52
,1195,2018/03/15 00:37:02.07,-2462,10359,-12367,0,107,-4,96,-107,-100,-53,-46
,1196,2018/03/15 00:37:02.09,-2478,10397,-12438,-1,101,-8,96,-102,-104,-50,-44
,1197,2018/03/15 00:37:02.11,-2535,10391,-12378,-11,98,-11,97,-109,-108,-43,-43
,1198,2018/03/15 00:37:02.13,-2522,10354,-12365,-20,86,-18,87,-106,-105,-33,-34
,1199,2018/03/15 00:37:02.15,-2581,10290,-12504,-25,78,-24,76,-103,-100,-26,-26
,1200,2018/03/15 00:37:02.17,-2552,10272,-12358,-22,78,-27,67,-100,-94,-28,-20
,1201,2018/03/15 00:37:02.19,-2529,10323,-12277,-20,68,-28,61,-88,-89,-24,-16
,1202,2018/03/15 00:37:02.21,-2446,10328,-12405,-38,51,-45,39,-89,-84,-6,3
,1203,2018/03/15 00:37:02.23,-2424,10393,-12411,-46,30,-49,20,-76,-69,8,14
,1204,2018/03/15 00:37:02.25,-2423,10372,-12457,-60,6,-61,6,-66,-67,27,27
,1205,2018/03/15 00:37:02.27,-2476,10404,-12382,-60,15,-54,23,-75,-77,22,15
,1206,2018/03/15 00:37:02.29,-2569,10372,-12395,-49,35,-52,33,-84,-85,7,9
,1207,2018/03/15 00:37:02.31,-2441,10312,-12381,-51,32,-39,41,-83,-80,9,-1
,1208,2018/03/15 00:37:02.33,-2512,10275,-12373,-46,30,-48,31,-76,-79,8,8
,1209,2018/03/15 00:37:02.35,-2562,10332,-12347,-53,32,-52,37,-85,-89,10,7
,1210,2018/03/15 00:37:02.37,-2514,10372,-12345,-38,55,-39,52,-93,-91,-8,-6
,1211,2018/03/15 00:37:02.39,-2453,10381,-12433,-42,49,-47,43,-91,-90,-3,2
,1212,2018/03/15 00:37:02.41,-2477,10432,-12407,-45,47,-36,59,-92,-95,-1,-11
,1213,2018/03/15 00:37:02.43,-2480,10324,-12353,-34,62,-28,72,-96,-100,-14,-22
,1214,2018/03/15 00:37:02.45,-2491,10245,-12350,-26,68,-25,60,-94,-85,-21,-17
,1215,2018/03/15 00:37:02.47,-2530,10268,-12433,-21,60,-27,53,-81,-80,-19,-13
,1216,2018/03/15 00:37:02.49,-2456,10319,-12413,-27,57,-25,61,-84,-86,-15,-18
,1217,2018/03/15 00:37:02.51,-2412,10362,-12409,-32,56,-35,61,-88,-96,-12,-13
,1218,2018/03/15 00:37:02.53,-2443,10356,-12436,-38,62,-21,78,-100,-99,-12,-28
,1219,2018/03/15 00:37:02.55,-2461,10327,-12441,0,98,6,106,-98,-100,-49,-56
,1220,2018/03/15 00:37:02.57,-2487,10292,-12444,14,118,9,113,-104,-104,-66,-61
,1221,2018/03/15 00:37:02.59,-2477,10312,-12421,12,120,16,127,-108,-111,-66,-71
,1222,2018/03/15 00:37:02.61,-2510,10312,-12358,14,126,21,139,-112,-118,-70,-80
,1223,2018/03/15 00:37:02.63,-2437,10298,-12397,22,136,18,139,-114,-121,-79,-78
,1224,2018/03/15 00:37:02.65,-2499,10277,-12401,11,132,8,132,-121,-124,-71,-70
,1225,2018/03/15 00:37:02.67,-2464,10293,-12452,28,148,29,149,-120,-120,-88,-89
,1226,2018/03/15 00:37:02.69,-2394,10239,-12444,39,159,36,156,-120,-120,-99,-96
,1227,2018/03/15 00:37:02.71,-2484,10309,-12444,40,160,54,174,-120,-120,-100,-114
,1228,2018/03/15 00:37:02.73,-2417,10248,-12398,53,171,42,164,-118,-122,-112,-103
,1229,2018/03/15 00:37:02.75,-2462,10278,-12407,29,150,14,131,-121,-117,-89,-72
,1230,2018/03/15 00:37:02.77,-2481,10261,-12430,13,129,-1,113,-116,-114,-71,-56
,1231,2018/03/15 00:37:02.79,-2442,10324,-12396,-10,106,-11,109,-116,-120,-48,-49
,1232,2018/03/15 00:37:02.81,-2450,10349,-12449,-17,103,-15,110,-120,-125,-43,-47
,1233,2018/03/15 00:37:02.83,-2445,10345,-12437,-19,108,-19,104,-127,-123,-44,-42
,1234,2018/03/15 00:37:02.85,-2499,10377,-12377,-18,101,-25,91,-119,-116,-41,-33
,1235,2018/03/15 00:37:02.87,-2500,10341,-12388,-18,99,-21,95,-117,-116,-40,-37
,1236,2018/03/15 00:37:02.89,-2513,10367,-12346,-28,92,-32,92,-120,-124,-32,-30
,1237,2018/03/15 00:37:02.91,-2545,10317,-12448,-33,84,-19,96,-117,-115,-25,-38
,1238,2018/03/15 00:37:02.93,-2575,10245,-12420,-14,100,-18,97,-114,-115,-43,-39
,1239,2018/03/15 00:37:02.95,-2504,10286,-12345,-29,87,-49,64,-116,-113,-29,-7
,1240,2018/03/15 00:37:02.97,-2516,10324,-12375,-46,67,-46,70,-113,-116,-10,-12
,1241,2018/03/15 00:37:02.99,-2565,10314,-12436,-43,75,-34,83,-118,-117,-16,-24
,1242,2018/03/15 00:37:03.01,-2467,10351,-12462,-40,74,-36,82,-114,-118,-17,-23
,1243,2018/03/15 00:37:03.03,-2454,10407,-12367,-31,90,-22,97,-121,-119,-29,-37
,1244,2018/03/15 00:37:03.05,-2478,10417,-12384,-23,104,-37,82,-127,-119,-40,-22
,1245,2018/03/15 00:37:03.07,-2518,10333,-12423,-42,76,-37,83,-118,-120,-17,-23
,1246,2018/03/15 00:37:03.09,-2517,10322,-12424,-41,80,-31,82,-121,-113,-19,-25
,1247,2018/03/15 00:37:03.11,-2538,10341,-12368,-33,67,-27,74,-100,-101,-17,-23
,1248,2018/03/15 00:37:03.13,-2553,10372,-12419,-33,69,-41,69,-102,-110,-18,-14
,1249,2018/03/15 00:37:03.15,-2570,10343,-12436,-36,80,-36,80,-116,-116,-22,-22
,1250,2018/03/15 00:37:03.17,-2463,10336,-12402,-35,86,-41,85,-121,-126,-25,-22
,1251,2018/03/15 00:37:03.19,-2498,10323,-12374,-40,83,-30,91,-123,-121,-21,-30
,1252,2018/03/15 00:37:03.21,-2590,10370,-12382,-30,84,-29,81,-114,-110,-27,-26
,1253,2018/03/15 00:37:03.23,-2596,10308,-12439,-32,76,-32,74,-108,-106,-22,-21
,1254,2018/03/15 00:37:03.25,-2400,10319,-12425,-27,83,-33,77,-110,-110,-28,-22
,1255,2018/03/15 00:37:03.27,-2499,10319,-12399,-40,78,-48,84,-118,-132,-19,-18
,1256,2018/03/15 00:37:03.29,-2494,10365,-12455,-67,80,-78,89,-147,-167,-6,-5
,1257,2018/03/15 00:37:03.31,-2470,10227,-12455,-84,92,-79,102,-176,-181,-4,-11
,1258,2018/03/15 00:37:03.33,-2463,10259,-12435,-69,112,-66,111,-181,-177,-21,-22
,1259,2018/03/15 00:37:03.35,-2478,10266,-12437,-57,114,-56,107,-171,-163,-28,-25
,1260,2018/03/15 00:37:03.37,-2402,10337,-12464,-53,106,-43,110,-159,-153,-26,-33
,1261,2018/03/15 00:37:03.39,-2414,10363,-12455,-41,106,-38,108,-147,-146,-32,-35
,1262,2018/03/15 00:37:03.41,-2414,10280,-12457,-43,98,-45,93,-141,-138,-27,-24
,1263,2018/03/15 00:37:03.43,-2413,10248,-12407,-41,92,-48,79,-133,-127,-25,-15
,1264,2018/03/15 00:37:03.45,-2443,10283,-12397,-41,85,-45,84,-126,-129,-22,-19
,1265,2018/03/15 00:37:03.47,-2469,10193,-12473,-36,89,-37,89,-125,-126,-26,-26
,1266,2018/03/15 00:37:03.49,-2395,10283,-12473,-38,81,-42,77,-119,-119,-21,-17
,1267,2018/03/15 00:37:03.51,-2467,10284,-12451,-48,72,-47,70,-120,-117,-12,-11
,1268,2018/03/15 00:37:03.53,-2460,10283,-12387,-30,87,-26,88,-117,-114,-28,-31
,1269,2018/03/15 00:37:03.55,-2449,10289,-12455,-13,100,-16,94,-113,-110,-43,-39
,1270,2018/03/15 00:37:03.57,-2490,10333,-12447,-20,84,-17,79,-104,-96,-32,-31
,1271,2018/03/15 00:37:03.59,-2490,10288,-12421,-18,71,-16,79,-89,-95,-26,-31
,1272,2018/03/15 00:37:03.61,-2555,10310,-12409,-16,83,-16,84,-99,-100,-33,-34
,1273,2018/03/15 00:37:03.63,-2457,10329,-12419,-4,88,-5,76,-92,-81,-42,-35
,1274,2018/03/15 00:37:03.65,-2498,10315,-12456,-1,70,-6,61,-71,-67,-34,-27
,1275,2018/03/15 00:37:03.67,-2524,10219,-12444,-15,56,-13,69,-71,-82,-20,-28
,1276,2018/03/15 00:37:03.69,-2517,10257,-12356,-21,60,-22,51,-81,-73,-19,-14
,1277,2018/03/15 00:37:03.71,-2494,10328,-12380,-26,48,-32,51,-74,-83,-11,-9
,1278,2018/03/15 00:37:03.73,-2516,10286,-12422,-29,61,-34,57,-90,-91,-16,-11
,1279,2018/03/15 00:37:03.75,-2494,10357,-12476,-27,68,-17,76,-95,-93,-20,-29
,1280,2018/03/15 00:37:03.77,-2436,10346,-12418,-13,77,-9,81,-90,-90,-32,-36
,1281,2018/03/15 00:37:03.79,-2459,10319,-12422,-20,71,-22,74,-91,-96,-25,-26
,1282,2018/03/15 00:37:03.81,-2529,10313,-12395,-14,85,-14,82,-99,-96,-35,-34
,1283,2018/03/15 00:37:03.83,-2526,10306,-12428,-8,84,-12,76,-92,-88,-38,-32
,1284,2018/03/15 00:37:03.85,-2496,10221,-12418,-17,74,-18,76,-91,-94,-28,-29
,1285,2018/03/15 00:37:03.87,-2513,10341,-12380,-27,72,-8,86,-99,-94,-22,-39
,1286,2018/03/15 00:37:03.89,-2603,10326,-12328,-10,84,-11,91,-94,-102,-37,-40
,1287,2018/03/15 00:37:03.91,-2534,10339,-12466,-21,85,-23,81,-106,-104,-32,-29
,1288,2018/03/15 00:37:03.93,-2432,10357,-12372,-13,89,-5,93,-102,-98,-38,-44
,1289,2018/03/15 00:37:03.95,-2550,10286,-12409,-8,91,-12,89,-99,-101,-41,-38
,1290,2018/03/15 00:37:03.97,-2504,10237,-12395,-20,76,-22,71,-96,-93,-28,-24
,1291,2018/03/15 00:37:03.99,-2481,10208,-12407,-24,69,-21,74,-93,-95,-22,-26
,1292,2018/03/15 00:37:04.01,-2473,10266,-12461,-19,74,-29,61,-93,-90,-27,-16
,1293,2018/03/15 00:37:04.03,-2405,10338,-12430,-25,69,-25,71,-94,-96,-22,-23
,1294,2018/03/15 00:37:04.05,-2454,10342,-12425,-16,81,-8,89,-97,-97,-32,-40
,1295,2018/03/15 00:37:04.07,-2390,10305,-12512,-16,80,-10,91,-96,-101,-32,-40
,1296,2018/03/15 00:37:04.09,-2437,10309,-12459,-12,88,-18,79,-100,-97,-38,-30
,1297,2018/03/15 00:37:04.11,-2543,10328,-12408,-18,77,-18,80,-95,-98,-29,-31
,1298,2018/03/15 00:37:04.13,-2473,10333,-12416,-16,88,-28,77,-104,-105,-36,-24
,1299,2018/03/15 00:37:04.15,-2495,10351,-12436,-34,72,-23,86,-106,-109,-19,-31
,1300,2018/03/15 00:37:04.17,-2468,10315,-12481,-24,86,-24,88,-110,-112,-31,-32
,1301,2018/03/15 00:37:04.19,-2504,10275,-12472,-26,80,-35,65,-106,-100,-27,-15
,1302,2018/03/15 00:37:04.21,-2454,10241,-12405,-42,60,-51,42,-102,-93,-9,4
,1303,2018/03/15 00:37:04.23,-2386,10228,-12396,-50,33,-51,28,-83,-79,8,11
,1304,2018/03/15 00:37:04.25,-2466,10220,-12427,-56,20,-62,9,-76,-71,18,26
,1305,2018/03/15 00:37:04.27,-2441,10255,-12417,-71,-6,-84,-11,-65,-73,38,47
,1306,2018/03/15 00:37:04.29,-2405,10280,-12457,-76,2,-78,4,-78,-82,37,37
,1307,2018/03/15 00:37:04.31,-2483,10288,-12476,-58,23,-53,21,-81,-74,17,16
,1308,2018/03/15 00:37:04.33,-2553,10304,-12390,-38,37,-36,47,-75,-83,0,-5
,1309,2018/03/15 00:37:04.35,-2494,10341,-12452,-39,55,-33,66,-94,-99,-8,-16
,1310,2018/03/15 00:37:04.37,-2536,10353,-12442,-26,72,-10,82,-98,-92,-23,-36
,1311,2018/03/15 00:37:04.39,-2469,10286,-12384,0,88,4,90,-88,-86,-44,-47
,1312,2018/03/15 00:37:04.41,-2502,10286,-12461,22,108,26,117,-86,-91,-65,-71
,1313,2018/03/15 00:37:04.43,-2549,10259,-12359,24,122,18,113,-98,-95,-73,-65
,1314,2018/03/15 00:37:04.45,-2501,10286,-12427,6,93,3,88,-87,-85,-49,-45
,1315,2018/03/15 00:37:04.47,-2533,10270,-12473,-3,80,0,84,-83,-84,-38,-42
,1316,2018/03/15 00:37:04.49,-2493,10271,-12484,6,91,9,93,-85,-84,-48,-51
,1317,2018/03/15 00:37:04.51,-2504,10400,-12411,17,104,9,98,-87,-89,-60,-53
,1318,2018/03/15 00:37:04.53,-2460,10330,-12390,2,98,4,102,-96,-98,-50,-53
,1319,2018/03/15 00:37:04.55,-2509,10328,-12437,4,102,5,108,-98,-103,-53,-56
,1320,2018/03/15 00:37:04.57,-2525,10254,-12398,-8,94,-13,91,-102,-104,-43,-39
,1321,2018/03/15 00:37:04.59,-2534,10277,-12322,-10,100,-2,104,-110,-106,-45,-51
,1322,2018/03/15 00:37:04.61,-2533,10314,-12403,9,116,5,111,-107,-106,-62,-58
,1323,2018/03/15 00:37:04.63,-2599,10290,-12476,1,105,2,103,-104,-101,-53,-52
,1324,2018/03/15 00:37:04.65,-2488,10310,-12439,-4,89,-6,89,-93,-95,-42,-41
,1325,2018/03/15 00:37:04.67,-2494,10202,-12413,-28,80,-36,79,-108,-115,-26,-21
,1326,2018/03/15 00:37:04.69,-2504,10212,-12415,-42,75,-33,82,-117,-115,-16,-24
,1327,2018/03/15 00:37:04.71,-2516,10192,-12486,-29,90,-35,90,-119,-125,-30,-27
,1328,2018/03/15 00:37:04.73,-2541,10205,-12452,-39,81,-31,84,-120,-115,-21,-26
,1329,2018/03/15 00:37:04.75,-2477,10284,-12439,-39,77,-37,85,-116,-122,-19,-24
,1330,2018/03/15 00:37:04.77,-2502,10351,-12418,-37,81,-34,81,-118,-115,-22,-23
,1331,2018/03/15 00:37:04.79,-2537,10283,-12480,-27,94,-40,80,-121,-120,-33,-20
,1332,2018/03/15 00:37:04.81,-2511,10270,-12429,-44,79,-45,76,-123,-121,-17,-15
,1333,2018/03/15 00:37:04.83,-2416,10307,-12440,-44,76,-30,89,-120,-119,-16,-29
,1334,2018/03/15 00:37:04.85,-2467,10261,-12431,-36,81,-44,79,-117,-123,-22,-17
,1335,2018/03/15 00:37:04.87,-2456,10234,-12469,-47,77,-49,72,-124,-121,-15,-11
,1336,2018/03/15 00:37:04.89,-2444,10290,-12471,-36,81,-34,78,-117,-112,-22,-22
,1337,2018/03/15 00:37:04.91,-2470,10282,-12484,-35,81,-35,86,-116,-121,-23,-25
,1338,2018/03/15 00:37:04.93,-2464,10262,-12478,-37,88,-35,90,-125,-125,-25,-27
,1339,2018/03/15 00:37:04.95,-2404,10269,-12478,-39,80,-37,79,-119,-116,-20,-21
,1340,2018/03/15 00:37:04.97,-2474,10237,-12455,-34,79,-33,78,-113,-111,-22,-22
,1341,2018/03/15 00:37:04.99,-2383,10263,-12486,-32,83,-37,79,-115,-116,-25,-21
,1342,2018/03/15 00:37:05.01,-2411,10216,-12506,-32,82,-33,80,-114,-113,-25,-23
,1343,2018/03/15 00:37:05.03,-2453,10262,-12452,-34,80,-25,94,-114,-119,-23,-34
,1344,2018/03/15 00:37:05.05,-2524,10249,-12497,-14,102,-8,110,-116,-118,-44,-51
,1345,2018/03/15 00:37:05.07,-2499,10329,-12391,-6,111,-15,97,-117,-112,-52,-41
,1346,2018/03/15 00:37:05.09,-2519,10274,-12488,-17,88,-39,68,-105,-107,-35,-14
,1347,2018/03/15 00:37:05.11,-2468,10277,-12500,-32,81,-24,95,-113,-119,-24,-35
,1348,2018/03/15 00:37:05.13,-2554,10287,-12428,-18,98,-27,90,-116,-117,-40,-31
,1349,2018/03/15 00:37:05.15,-2587,10295,-12357,-39,78,-43,71,-117,-114,-19,-14
,1350,2018/03/15 00:37:05.17,-2503,10302,-12443,-31,82,-30,79,-113,-109,-25,-24
,1351,2018/03/15 00:37:05.19,-2531,10304,-12492,-26,83,-31,76,-109,-107,-28,-22
,1352,2018/03/15 00:37:05.21,-2490,10363,-12436,-31,76,-26,82,-107,-108,-22,-28
,1353,2018/03/15 00:37:05.23,-2461,10347,-12412,-28,79,-29,82,-107,-111,-25,-26
,1354,2018/03/15 00:37:05.25,-2482,10260,-12483,-40,74,-45,68,-114,-113,-17,-11
,1355,2018/03/15 00:37:05.27,-2456,10256,-12427,-39,69,-46,56,-108,-102,-15,-5
,1356,2018/03/15 00:37:05.29,-2518,10224,-12413,-43,53,-37,54,-96,-91,-5,-8
,1357,2018/03/15 00:37:05.31,-2510,10308,-12411,-31,60,-25,70,-91,-95,-14,-22
,1358,2018/03/15 00:37:05.33,-2526,10280,-12527,-25,63,-24,59,-88,-83,-19,-17
,1359,2018/03/15 00:37:05.35,-2490,10271,-12464,-34,50,-35,48,-84,-83,-8,-6
,1360,2018/03/15 00:37:05.37,-2507,10242,-12476,-25,58,-27,51,-83,-78,-16,-12
,1361,2018/03/15 00:37:05.39,-2481,10260,-12391,-23,56,-21,58,-79,-79,-16,-18
,1362,2018/03/15 00:37:05.41,-2460,10203,-12432,-18,62,-12,74,-80,-86,-22,-31
,1363,2018/03/15 00:37:05.43,-2544,10235,-12458,-12,75,-7,83,-87,-90,-31,-38
,1364,2018/03/15 00:37:05.45,-2472,10227,-12542,-13,82,-21,81,-95,-102,-34,-30
,1365,2018/03/15 00:37:05.47,-2541,10314,-12507,-24,85,-44,62,-109,-106,-30,-9
,1366,2018/03/15 00:37:05.49,-2466,10282,-12470,-62,43,-61,38,-105,-99,9,11
,1367,2018/03/15 00:37:05.51,-2526,10288,-12486,-74,33,-76,60,-107,-136,20,8
,1368,2018/03/15 00:37:05.53,-2530,10289,-12473,-100,64,-94,84,-164,-178,18,5
,1369,2018/03/15 00:37:05.55,-2518,10211,-12491,-88,82,-82,76,-170,-158,3,3
,1370,2018/03/15 00:37:05.57,-2538,10213,-12437,-71,80,-62,85,-151,-147,-4,-11
,1371,2018/03/15 00:37:05.59,-2476,10215,-12492,-59,90,-63,87,-149,-150,-15,-12
,1372,2018/03/15 00:37:05.61,-2501,10247,-12476,-67,86,-58,90,-153,-148,-9,-16
,1373,2018/03/15 00:37:05.63,-2468,10227,-12482,-53,86,-45,90,-139,-135,-16,-22
,1374,2018/03/15 00:37:05.65,-2422,10184,-12507,-44,91,-47,82,-135,-129,-23,-17
,1375,2018/03/15 00:37:05.67,-2375,10131,-12494,-37,87,-38,79,-124,-117,-25,-20
,1376,2018/03/15 00:37:05.69,-2445,10216,-12515,-32,79,-19,88,-111,-107,-23,-34
,1377,2018/03/15 00:37:05.71,-2418,10170,-12575,-22,82,-24,83,-104,-107,-30,-29
,1378,2018/03/15 00:37:05.73,-2434,10215,-12500,-28,78,-24,82,-106,-106,-25,-29
,1379,2018/03/15 00:37:05.75,-2490,10185,-12480,-20,87,-23,84,-107,-107,-33,-30
,1380,2018/03/15 00:37:05.77,-2465,10267,-12492,-17,96,-20,95,-113,-115,-39,-37
,1381,2018/03/15 00:37:05.79,-2467,10305,-12560,-21,93,-19,95,-114,-114,-36,-38
,1382,2018/03/15 00:37:05.81,-2477,10234,-12564,-23,88,-16,93,-111,-109,-32,-38
,1383,2018/03/15 00:37:05.83,-2448,10169,-12424,-22,83,-31,76,-105,-107,-30,-22
,1384,2018/03/15 00:37:05.85,-2560,10196,-12404,-32,74,-37,62,-106,-99,-21,-12
,1385,2018/03/15 00:37:05.87,-2514,10236,-12467,-36,63,-36,65,-99,-101,-13,-14
,1386,2018/03/15 00:37:05.89,-2535,10252,-12517,-24,80,-23,83,-104,-106,-28,-30
,1387,2018/03/15 00:37:05.91,-2472,10271,-12486,-28,72,-31,68,-100,-99,-22,-18
,1388,2018/03/15 00:37:05.93,-2489,10330,-12457,-23,75,-38,62,-98,-100,-26,-12
,1389,2018/03/15 00:37:05.95,-2503,10302,-12428,-43,53,-49,30,-96,-79,-5,9
,1390,2018/03/15 00:37:05.97,-2503,10266,-12440,-39,27,-46,14,-66,-60,6,16
,1391,2018/03/15 00:37:05.99,-2522,10276,-12414,-58,7,-57,13,-65,-70,25,22
,1392,2018/03/15 00:37:06.01,-2514,10239,-12505,-64,12,-64,18,-76,-82,26,23
,1393,2018/03/15 00:37:06.03,-2511,10305,-12418,-64,22,-65,29,-86,-94,21,18
,1394,2018/03/15 00:37:06.05,-2526,10307,-12521,-49,54,-42,64,-103,-106,-2,-11
,1395,2018/03/15 00:37:06.07,-2518,10299,-12449,-36,73,-37,74,-109,-111,-18,-18
,1396,2018/03/15 00:37:06.09,-2596,10206,-12436,-31,86,-12,107,-117,-119,-27,-47
,1397,2018/03/15 00:37:06.11,-2528,10206,-12460,-6,108,-3,110,-114,-113,-51,-53
,1398,2018/03/15 00:37:06.13,-2521,10167,-12513,-3,110,-6,108,-113,-114,-53,-51
,1399,2018/03/15 00:37:06.15,-2480,10222,-12458,-2,118,-11,112,-120,-123,-58,-50
,1400,2018/03/15 00:37:06.17,-2443,10224,-12470,-8,121,-4,124,-129,-128,-56,-60
,1401,2018/03/15 00:37:06.19,-2470,10299,-12498,-8,118,-9,118,-126,-127,-55,-54
,1402,2018/03/15 00:37:06.21,-2422,10266,-12504,-12,111,-9,114,-123,-123,-49,-52
,1403,2018/03/15 00:37:06.23,-2487,10283,-12473,-11,110,-20,97,-121,-117,-49,-38
,1404,2018/03/15 00:37:06.25,-2452,10266,-12483,-22,95,-22,93,-117,-115,-36,-35
,1405,2018/03/15 00:37:06.27,-2544,10290,-12450,-9,103,-3,108,-112,-111,-47,-52
,1406,2018/03/15 00:37:06.29,-2471,10310,-12477,-10,102,-1,109,-112,-110,-46,-54
,1407,2018/03/15 00:37:06.31,-2473,10284,-12416,-10,99,-13,94,-109,-107,-44,-40
,1408,2018/03/15 00:37:06.33,-2492,10280,-12479,-31,78,-26,89,-109,-115,-23,-31
,1409,2018/03/15 00:37:06.35,-2542,10272,-12481,-18,100,-17,96,-118,-113,-41,-39
,1410,2018/03/15 00:37:06.37,-2468,10208,-12484,-25,80,-23,84,-105,-107,-27,-30
,1411,2018/03/15 00:37:06.39,-2481,10231,-12425,-28,85,-24,97,-113,-121,-28,-36
,1412,2018/03/15 00:37:06.41,-2510,10201,-12451,-32,86,-34,81,-118,-115,-27,-23
,1413,2018/03/15 00:37:06.43,-2525,10265,-12517,-31,82,-33,75,-113,-108,-25,-21
,1414,2018/03/15 00:37:06.45,-2502,10249,-12426,-25,80,-25,79,-105,-104,-27,-27
,1415,2018/03/15 00:37:06.47,-2509,10236,-12410,-24,80,-25,83,-104,-108,-28,-29
,1416,2018/03/15 00:37:06.49,-2456,10304,-12487,-32,74,-31,74,-106,-105,-21,-21
,1417,2018/03/15 00:37:06.51,-2474,10211,-12468,-41,67,-48,63,-108,-111,-13,-7
,1418,2018/03/15 00:37:06.53,-2520,10210,-12467,-39,76,-39,73,-115,-112,-18,-17
,1419,2018/03/15 00:37:06.55,-2540,10208,-12337,-30,82,-28,86,-112,-114,-26,-29
,1420,2018/03/15 00:37:06.57,-2475,10243,-12385,-25,84,-16,90,-109,-106,-29,-37
,1421,2018/03/15 00:37:06.59,-2501,10273,-12521,-21,80,-31,70,-101,-101,-29,-19
,1422,2018/03/15 00:37:06.61,-2482,10327,-12426,-35,68,-29,78,-103,-107,-16,-24
,1423,2018/03/15 00:37:06.63,-2442,10315,-12423,-24,88,-31,81,-112,-112,-32,-25
,1424,2018/03/15 00:37:06.65,-2485,10252,-12479,-34,78,-35,75,-112,-110,-22,-20
,1425,2018/03/15 00:37:06.67,-2536,10266,-12470,-35,75,-36,80,-110,-116,-20,-22
,1426,2018/03/15 00:37:06.69,-2511,10272,-12476,-46,72,-42,77,-118,-119,-13,-17
,1427,2018/03/15 00:37:06.71,-2529,10278,-12401,-24,86,-22,81,-110,-103,-31,-29
,1428,2018/03/15 00:37:06.73,-2538,10291,-12433,-12,91,-31,75,-103,-106,-39,-22
,1429,2018/03/15 00:37:06.75,-2525,10328,-12515,-20,96,-17,105,-116,-122,-38,-44
,1430,2018/03/15 00:37:06.77,-2568,10269,-12443,-14,108,-20,103,-122,-123,-47,-41
,1431,2018/03/15 00:37:06.79,-2540,10238,-12387,-32,87,-35,83,-119,-118,-27,-24
,1432,2018/03/15 00:37:06.81,-2492,10199,-12441,-36,83,-38,79,-119,-117,-23,-20
,1433,2018/03/15 00:37:06.83,-2455,10187,-12519,-28,91,-29,88,-119,-117,-31,-29
,1434,2018/03/15 00:37:06.85,-2462,10207,-12481,-29,88,-24,89,-117,-113,-29,-32
,1435,2018/03/15 00:37:06.87,-2550,10242,-12485,-29,83,-27,87,-112,-114,-27,-30
,1436,2018/03/15 00:37:06.89,-2487,10326,-12467,-39,75,-40,72,-114,-112,-18,-16
,1437,2018/03/15 00:37:06.91,-2578,10246,-12466,-34,76,-37,74,-110,-111,-21,-18
,1438,2018/03/15 00:37:06.93,-2469,10221,-12488,-33,81,-37,75,-114,-112,-24,-19
,1439,2018/03/15 00:37:06.95,-2550,10259,-12494,-44,74,-45,79,-118,-124,-15,-17
,1440,2018/03/15 00:37:06.97,-2438,10248,-12415,-43,81,-33,91,-124,-124,-19,-29
,1441,2018/03/15 00:37:06.99,-2482,10247,-12452,-42,78,-49,73,-120,-122,-18,-12
,1442,2018/03/15 00:37:07.01,-2527,10280,-12512,-43,81,-40,78,-124,-118,-19,-19
,1443,2018/03/15 00:37:07.03,-2439,10305,-12447,-37,77,-40,71,-114,-111,-20,-15
,1444,2018/03/15 00:37:07.05,-2443,10283,-12521,-44,71,-40,81,-115,-121,-13,-20
,1445,2018/03/15 00:37:07.07,-2471,10230,-12462,-32,85,-22,93,-117,-115,-26,-35
,1446,2018/03/15 00:37:07.09,-2488,10250,-12433,-23,85,-22,82,-108,-104,-31,-30
,1447,2018/03/15 00:37:07.11,-2433,10171,-12456,-25,84,-28,83,-109,-111,-29,-27
,1448,2018/03/15 00:37:07.13,-2433,10218,-12456,-38,78,-43,75,-116,-118,-20,-16
,1449,2018/03/15 00:37:07.15,-2476,10257,-12474,-51,61,-29,81,-112,-110,-5,-26
,1450,2018/03/15 00:37:07.17,-2518,10309,-12388,-28,79,-22,91,-107,-113,-25,-34
,1451,2018/03/15 00:37:07.19,-2538,10344,-12466,-20,92,-24,88,-112,-112,-36,-32
,1452,2018/03/15 00:37:07.21,-2597,10258,-12475,-23,92,-32,86,-115,-118,-34,-27
,1453,2018/03/15 00:37:07.23,-2484,10287,-12359,-34,83,-38,77,-117,-115,-24,-19
,1454,2018/03/15 00:37:07.25,-2591,10223,-12335,-40,74,-32,84,-114,-116,-17,-26
,1455,2018/03/15 00:37:07.27,-2541,10247,-12395,-37,78,-34,84,-115,-118,-20,-25
,1456,2018/03/15 00:37:07.29,-2557,10256,-12492,-35,86,-32,85,-121,-117,-25,-26
,1457,2018/03/15 00:37:07.31,-2475,10307,-12489,-23,92,-25,88,-115,-113,-34,-31
,1458,2018/03/15 00:37:07.33,-2487,10387,-12451,-22,96,-23,97,-118,-120,-37,-37
,1459,2018/03/15 00:37:07.35,-2487,10373,-12428,-26,87,-21,88,-113,-109,-30,-33
,1460,2018/03/15 00:37:07.37,-2505,10257,-12432,-35,76,-46,71,-111,-117,-20,-12
,1461,2018/03/15 00:37:07.39,-2494,10239,-12406,-48,73,-41,80,-121,-121,-12,-19
,1462,2018/03/15 00:37:07.41,-2557,10274,-12399,-28,88,-31,80,-116,-111,-30,-24
,1463,2018/03/15 00:37:07.43,-2528,10288,-12438,-35,78,-36,84,-113,-120,-21,-24
,1464,2018/03/15 00:37:07.45,-2536,10337,-12504,-36,86,-25,96,-122,-121,-25,-35
,1465,2018/03/15 00:37:07.47,-2505,10279,-12360,-27,92,-30,88,-119,-118,-32,-29
,1466,2018/03/15 00:37:07.49,-2495,10213,-12382,-27,92,-33,87,-119,-120,-32,-27
,1467,2018/03/15 00:37:07.51,-2549,10188,-12429,-40,84,-52,67,-124,-119,-22,-7
,1468,2018/03/15 00:37:07.53,-2550,10153,-12476,-45,69,-47,63,-114,-110,-12,-8
,1469,2018/03/15 00:37:07.55,-2558,10216,-12460,-43,68,-41,74,-111,-115,-12,-16
,1470,2018/03/15 00:37:07.57,-2478,10259,-12443,-24,94,-26,88,-118,-114,-35,-31
,1471,2018/03/15 00:37:07.59,-2447,10267,-12446,-41,75,-42,66,-116,-108,-17,-12
,1472,2018/03/15 00:37:07.61,-2542,10212,-12483,-37,67,-43,53,-104,-96,-15,-5
,1473,2018/03/15 00:37:07.63,-2541,10300,-12509,-46,44,-44,43,-90,-87,1,0
,1474,2018/03/15 00:37:07.65,-2542,10281,-12475,-47,40,-36,55,-87,-91,3,-9
,1475,2018/03/15 00:37:07.67,-2605,10278,-12431,-32,64,-28,76,-96,-104,-16,-24
,1476,2018/03/15 00:37:07.69,-2541,10251,-12471,-20,87,-22,86,-107,-108,-33,-32
,1477,2018/03/15 00:37:07.71,-2524,10226,-12519,-16,96,-9,102,-112,-111,-40,-46
,1478,2018/03/15 00:37:07.73,-2524,10244,-12426,-5,101,-9,97,-106,-106,-48,-44
,1479,2018/03/15 00:37:07.75,-2513,10280,-12469,-25,85,-29,89,-110,-118,-30,-30
,1480,2018/03/15 00:37:07.77,-2490,10203,-12494,-24,91,-12,95,-115,-107,-33,-41
,1481,2018/03/15 00:37:07.79,-2438,10220,-12518,3,110,0,110,-107,-110,-56,-55
,1482,2018/03/15 00:37:07.81,-2514,10231,-12496,-4,112,-11,102,-116,-113,-54,-45
,1483,2018/03/15 00:37:07.83,-2493,10253,-12428,-14,91,-9,91,-105,-100,-38,-41
,1484,2018/03/15 00:37:07.85,-2517,10241,-12495,-13,89,-12,97,-102,-109,-38,-42
,1485,2018/03/15 00:37:07.87,-2553,10305,-12423,-16,97,-25,89,-113,-114,-40,-32
,1486,2018/03/15 00:37:07.89,-2593,10290,-12378,-20,89,-16,82,-109,-98,-34,-33
,1487,2018/03/15 00:37:07.91,-2598,10332,-12454,-8,95,-4,106,-103,-110,-43,-51
,1488,2018/03/15 00:37:07.93,-2595,10239,-12462,-13,93,-9,95,-106,-104,-40,-43
,1489,2018/03/15 00:37:07.95,-2608,10184,-12449,-23,79,-20,86,-102,-106,-28,-33
,1490,2018/03/15 00:37:07.97,-2574,10225,-12268,-23,77,-17,85,-100,-102,-27,-34
,1491,2018/03/15 00:37:07.99,-2607,10234,-12386,-12,95,-22,93,-107,-115,-41,-35
,1492,2018/03/15 00:37:08.01,-2541,10317,-12490,-15,104,-20,101,-119,-121,-44,-40
,1493,2018/03/15 00:37:08.03,-2469,10335,-12474,-34,83,-34,84,-117,-118,-24,-25
,1494,2018/03/15 00:37:08.05,-2522,10360,-12425,-32,83,-29,89,-115,-118,-25,-30
,1495,2018/03/15 00:37:08.07,-2520,10404,-12422,-25,96,-30,95,-121,-125,-35,-32
,1496,2018/03/15 00:37:08.09,-2541,10302,-12441,-29,94,-34,81,-123,-115,-32,-23
,1497,2018/03/15 00:37:08.11,-2577,10211,-12400,-32,82,-23,93,-114,-116,-25,-35
,1498,2018/03/15 00:37:08.13,-2550,10259,-12423,-18,94,-18,97,-112,-115,-38,-39
,1499,2018/03/15 00:37:08.15,-2599,10323,-12395,-31,87,-29,86,-118,-115,-28,-28
,1500,2018/03/15 00:37:08.17,-2564,10269,-12436,-21,93,-23,88,-114,-111,-36,-32
,1501,2018/03/15 00:37:08.19,-2550,10343,-12429,-22,88,-25,83,-110,-108,-33,-29
,1502,2018/03/15 00:37:08.21,-2639,10289,-12422,-24,87,-23,92,-111,-115,-31,-34
,1503,2018/03/15 00:37:08.23,-2565,10264,-12410,-30,83,-30,81,-113,-111,-26,-25
,1504,2018/03/15 00:37:08.25,-2571,10240,-12394,-32,68,-32,66,-100,-98,-18,-17
,1505,2018/03/15 00:37:08.27,-2474,10268,-12468,-33,67,-45,61,-100,-106,-17,-8
,1506,2018/03/15 00:37:08.29,-2554,10312,-12443,-47,68,-50,67,-115,-117,-10,-8
,1507,2018/03/15 00:37:08.31,-2514,10319,-12492,-50,64,-49,67,-114,-116,-7,-9
,1508,2018/03/15 00:37:08.33,-2514,10325,-12458,-56,59,-50,60,-115,-110,-1,-5
,1509,2018/03/15 00:37:08.35,-2555,10254,-12508,-38,65,-47,61,-103,-108,-13,-7
,1510,2018/03/15 00:37:08.37,-2567,10219,-12425,-39,75,-45,61,-114,-106,-18,-8
