// Data mode  : Standard
// Transmission speed  : 100Hz
// Accelerometer sensor's range  : 2g
// Gyroscope sensor's range  : 250dps
//
//ARTIFACT,NUM,DATE,ACC_X,ACC_Y,ACC_Z,EOG_L1,EOG_R1,EOG_L2,EOG_R2,EOG_H1,EOG_H2,EOG_V1,EOG_V2
,1,2018/03/15 01:38:48.92,-1697,9804,-13080,-62,125,-47,140,-187,-187,-31,-46
,2,2018/03/15 01:38:48.93,-1476,9731,-12847,-43,138,-35,148,-181,-183,-47,-56
,3,2018/03/15 01:38:48.94,-1585,9992,-12801,-35,146,-38,144,-181,-182,-55,-53
,4,2018/03/15 01:38:48.95,-1536,10124,-12784,-50,126,-48,130,-176,-178,-38,-41
,5,2018/03/15 01:38:48.96,-1529,10193,-12918,-54,123,-54,126,-177,-180,-34,-36
,6,2018/03/15 01:38:48.97,-1582,10224,-12842,-57,122,-49,132,-179,-181,-32,-41
,7,2018/03/15 01:38:48.98,-1617,10270,-12751,-55,125,-56,128,-180,-184,-35,-36
,8,2018/03/15 01:38:48.99,-1566,10169,-12817,-60,130,-61,125,-190,-186,-35,-32
,9,2018/03/15 01:38:49.00,-1658,10003,-12869,-69,113,-54,135,-182,-189,-22,-40
,10,2018/03/15 01:38:49.01,-1742,9965,-12828,-66,118,-66,117,-184,-183,-26,-25
,11,2018/03/15 01:38:49.02,-1708,9864,-12803,-64,110,-61,115,-174,-176,-23,-27
,12,2018/03/15 01:38:49.03,-1665,9774,-12669,-69,103,-78,92,-172,-170,-17,-7
,13,2018/03/15 01:38:49.04,-1686,9698,-12452,-73,98,-73,99,-171,-172,-12,-13
,14,2018/03/15 01:38:49.05,-1910,9439,-12581,-78,89,-74,96,-167,-170,-5,-11
,15,2018/03/15 01:38:49.06,-1659,9915,-12819,-79,86,-74,88,-165,-162,-3,-7
,16,2018/03/15 01:38:49.07,-1755,9771,-12821,-78,80,-73,87,-158,-160,-1,-7
,17,2018/03/15 01:38:49.08,-1915,10441,-13066,-83,66,-76,78,-149,-154,8,-1
,18,2018/03/15 01:38:49.09,-1635,10554,-12837,-74,78,-74,79,-152,-153,-2,-2
,19,2018/03/15 01:38:49.10,-1909,10026,-12855,-76,73,-67,86,-149,-153,1,-9
,20,2018/03/15 01:38:49.11,-1777,10095,-12903,-67,83,-68,82,-150,-150,-8,-7
,21,2018/03/15 01:38:49.12,-1786,10073,-12901,-69,79,-63,86,-148,-149,-5,-11
,22,2018/03/15 01:38:49.13,-1777,10048,-12831,-70,75,-69,80,-145,-149,-2,-5
,23,2018/03/15 01:38:49.14,-1736,10027,-12709,-70,75,-64,80,-145,-144,-2,-8
,24,2018/03/15 01:38:49.15,-1690,10015,-12875,-65,74,-56,90,-139,-146,-4,-17
,25,2018/03/15 01:38:49.16,-1778,9922,-12896,-59,85,-54,86,-144,-140,-13,-16
,26,2018/03/15 01:38:49.17,-1697,9889,-12936,-52,84,-46,89,-136,-135,-16,-21
,27,2018/03/15 01:38:49.18,-1744,9939,-12980,-48,78,-44,87,-126,-131,-15,-21
,28,2018/03/15 01:38:49.19,-1749,9938,-12933,-41,91,-45,91,-132,-136,-25,-23
,29,2018/03/15 01:38:49.20,-1710,9920,-12884,-50,83,-42,98,-133,-140,-16,-28
,30,2018/03/15 01:38:49.21,-1649,9915,-12902,-43,94,-35,107,-137,-142,-25,-36
,31,2018/03/15 01:38:49.22,-1703,9981,-12783,-29,113,-19,124,-142,-143,-42,-52
,32,2018/03/15 01:38:49.23,-1701,9943,-12743,-17,116,-12,126,-133,-138,-49,-57
,33,2018/03/15 01:38:49.24,-1717,9850,-12811,-12,123,-14,124,-135,-138,-55,-55
,34,2018/03/15 01:38:49.25,-1702,9889,-12832,-20,116,-15,126,-136,-141,-48,-55
,35,2018/03/15 01:38:49.26,-1673,9986,-12857,-24,116,-23,118,-140,-141,-46,-47
,36,2018/03/15 01:38:49.27,-1682,10057,-12848,-28,114,-25,117,-142,-142,-43,-46
,37,2018/03/15 01:38:49.28,-1739,9961,-12817,-33,107,-32,117,-140,-149,-37,-42
,38,2018/03/15 01:38:49.29,-1559,9845,-12687,-29,119,-35,118,-148,-153,-45,-41
,39,2018/03/15 01:38:49.30,-1703,9756,-12892,-39,111,-36,120,-150,-156,-36,-42
,40,2018/03/15 01:38:49.31,-1696,9811,-12918,-44,109,-45,106,-153,-151,-32,-30
,41,2018/03/15 01:38:49.32,-1643,9854,-12988,-48,102,-49,103,-150,-152,-27,-27
,42,2018/03/15 01:38:49.33,-1629,9975,-13076,-53,88,-51,92,-141,-143,-17,-20
,43,2018/03/15 01:38:49.34,-1668,10295,-13095,-53,84,-56,84,-137,-140,-15,-14
,44,2018/03/15 01:38:49.35,-1692,10249,-12844,-64,74,-60,82,-138,-142,-5,-11
,45,2018/03/15 01:38:49.36,-1639,10209,-12783,-64,72,-65,73,-136,-138,-4,-4
,46,2018/03/15 01:38:49.37,-1831,9979,-12802,-64,71,-61,75,-135,-136,-3,-7
,47,2018/03/15 01:38:49.38,-1627,10113,-13174,-64,68,-61,76,-132,-137,-2,-7
,48,2018/03/15 01:38:49.39,-1859,9943,-12955,-63,73,-68,70,-136,-138,-5,-1
,49,2018/03/15 01:38:49.40,-1594,9744,-12642,-70,69,-69,73,-139,-142,0,-2
,50,2018/03/15 01:38:49.41,-1725,9303,-12397,-70,67,-48,96,-137,-144,1,-24
,51,2018/03/15 01:38:49.42,-1489,9364,-12996,-48,96,-45,100,-144,-145,-24,-27
,52,2018/03/15 01:38:49.43,-1534,9442,-12927,-37,104,-23,121,-141,-144,-33,-49
,53,2018/03/15 01:38:49.44,-1593,9643,-12870,-8,137,-3,135,-145,-138,-64,-66
,54,2018/03/15 01:38:49.45,-1539,9709,-12774,7,146,11,154,-139,-143,-76,-82
,55,2018/03/15 01:38:49.46,-1533,10048,-12876,0,138,-5,136,-138,-141,-69,-65
,56,2018/03/15 01:38:49.47,-1579,10105,-13011,-16,122,-18,121,-138,-139,-53,-51
,57,2018/03/15 01:38:49.48,-1621,10238,-13030,-33,105,-31,107,-138,-138,-36,-38
,58,2018/03/15 01:38:49.49,-1596,10300,-12884,-39,98,-39,102,-137,-141,-29,-31
,59,2018/03/15 01:38:49.50,-1652,10280,-12729,-38,98,-43,102,-136,-145,-30,-29
,60,2018/03/15 01:38:49.51,-1614,10277,-12963,-41,99,-38,106,-140,-144,-29,-34
,61,2018/03/15 01:38:49.52,-1631,10111,-12953,-37,104,-39,106,-141,-145,-33,-33
,62,2018/03/15 01:38:49.53,-1689,10085,-12885,-46,96,-41,103,-142,-144,-25,-31
,63,2018/03/15 01:38:49.54,-1728,10009,-12837,-50,93,-57,93,-143,-150,-21,-18
,64,2018/03/15 01:38:49.55,-1765,9969,-12748,-60,84,-60,92,-144,-152,-12,-16
,65,2018/03/15 01:38:49.56,-1808,9942,-12848,-66,80,-63,88,-146,-151,-7,-12
,66,2018/03/15 01:38:49.57,-1841,9873,-12747,-65,83,-65,85,-148,-150,-9,-10
,67,2018/03/15 01:38:49.58,-1754,9857,-12721,-72,73,-68,83,-145,-151,0,-7
,68,2018/03/15 01:38:49.59,-1739,9854,-12857,-72,75,-74,76,-147,-150,-1,-1
,69,2018/03/15 01:38:49.60,-1660,10169,-12816,-71,74,-68,85,-145,-153,-1,-8
,70,2018/03/15 01:38:49.61,-1724,9853,-12145,-71,74,-70,80,-145,-150,-1,-5
,71,2018/03/15 01:38:49.62,-2019,9421,-12800,-70,74,-66,77,-144,-143,-2,-5
,72,2018/03/15 01:38:49.63,-1741,9868,-13133,-66,67,-53,76,-133,-129,0,-11
,73,2018/03/15 01:38:49.64,-1664,9824,-13202,-51,64,-43,64,-115,-107,-6,-10
,74,2018/03/15 01:38:49.65,-1742,10211,-12891,-38,57,-26,63,-95,-89,-9,-18
,75,2018/03/15 01:38:49.66,-1568,10464,-12753,-28,52,-23,56,-80,-79,-12,-16
,76,2018/03/15 01:38:49.67,-1684,10354,-12855,-20,55,-20,60,-75,-80,-17,-20
,77,2018/03/15 01:38:49.68,-1596,10488,-12782,-23,55,-17,68,-78,-85,-16,-25
,78,2018/03/15 01:38:49.69,-1653,10216,-12809,-19,64,-21,65,-83,-86,-22,-22
,79,2018/03/15 01:38:49.70,-1691,10100,-12807,-23,61,-17,70,-84,-87,-19,-26
,80,2018/03/15 01:38:49.71,-1701,10048,-12894,-22,60,-16,70,-82,-86,-19,-27
,81,2018/03/15 01:38:49.72,-1711,9965,-12932,-18,69,-19,73,-87,-92,-25,-27
,82,2018/03/15 01:38:49.73,-1679,9838,-13004,-21,69,-16,81,-90,-97,-24,-32
,83,2018/03/15 01:38:49.74,-1605,9796,-12881,-20,72,-18,75,-92,-93,-26,-28
,84,2018/03/15 01:38:49.75,-1672,9689,-12853,-18,73,-12,86,-91,-98,-27,-37
,85,2018/03/15 01:38:49.76,-1761,9746,-12832,-19,80,-15,92,-99,-107,-30,-38
,86,2018/03/15 01:38:49.77,-1643,9905,-12855,-18,93,-17,94,-111,-111,-37,-38
,87,2018/03/15 01:38:49.78,-1673,9969,-12705,-22,89,-18,94,-111,-112,-33,-38
,88,2018/03/15 01:38:49.79,-1613,9979,-12685,-22,88,-26,88,-110,-114,-33,-31
,89,2018/03/15 01:38:49.80,-1702,10083,-12787,-30,85,-27,91,-115,-118,-27,-32
,90,2018/03/15 01:38:49.81,-1560,10125,-12868,-30,83,-28,84,-113,-112,-26,-28
,91,2018/03/15 01:38:49.82,-1627,10017,-12952,-33,77,-24,87,-110,-111,-22,-31
,92,2018/03/15 01:38:49.83,-1597,10097,-12962,-37,71,-31,79,-108,-110,-17,-24
,93,2018/03/15 01:38:49.84,-1567,10121,-12924,-31,78,-39,77,-109,-116,-23,-19
,94,2018/03/15 01:38:49.85,-1570,9868,-12797,-37,78,-35,81,-115,-116,-20,-23
,95,2018/03/15 01:38:49.86,-1523,9776,-12830,-36,82,-27,94,-118,-121,-23,-33
,96,2018/03/15 01:38:49.87,-1498,9710,-12981,-23,89,-22,96,-112,-118,-33,-37
,97,2018/03/15 01:38:49.88,-1534,9812,-12987,-24,89,-16,102,-113,-118,-32,-43
,98,2018/03/15 01:38:49.89,-1667,10016,-13169,-23,91,-27,90,-114,-117,-34,-31
,99,2018/03/15 01:38:49.90,-1617,10217,-13043,-37,79,-29,88,-116,-117,-21,-29
,100,2018/03/15 01:38:49.91,-1655,10145,-13054,-40,79,-50,72,-119,-122,-19,-11
,101,2018/03/15 01:38:49.92,-1768,10316,-12945,-48,73,-50,75,-121,-125,-12,-12
,102,2018/03/15 01:38:49.93,-1807,10105,-12952,-52,71,-52,75,-123,-127,-9,-11
,103,2018/03/15 01:38:49.94,-1759,10244,-12786,-62,57,-63,58,-119,-121,2,2
,104,2018/03/15 01:38:49.95,-1864,9996,-12801,-69,50,-69,51,-119,-120,9,9
,105,2018/03/15 01:38:49.96,-2016,10087,-13042,-83,37,-78,44,-120,-122,23,17
,106,2018/03/15 01:38:49.97,-1971,10034,-12799,-82,44,-82,51,-126,-133,19,15
,107,2018/03/15 01:38:49.98,-1956,9631,-12586,-89,45,-88,52,-134,-140,22,18
,108,2018/03/15 01:38:49.99,-1794,9422,-12278,-88,47,-78,56,-135,-134,20,11
,109,2018/03/15 01:38:50.00,-1607,9434,-12773,-64,62,-52,72,-126,-124,1,-10
,110,2018/03/15 01:38:50.01,-1721,9470,-13010,-51,65,-36,79,-116,-115,-7,-21
,111,2018/03/15 01:38:50.02,-1621,9605,-12757,-36,72,-37,71,-108,-108,-18,-17
,112,2018/03/15 01:38:50.03,-1736,9758,-12786,-50,54,-59,48,-104,-107,-2,5
,113,2018/03/15 01:38:50.04,-1717,10042,-12841,-76,24,-84,22,-100,-106,26,31
,114,2018/03/15 01:38:50.05,-1748,10100,-12905,-89,13,-93,17,-102,-110,38,38
,115,2018/03/15 01:38:50.06,-1668,10103,-12873,-96,9,-89,24,-105,-113,43,32
,116,2018/03/15 01:38:50.07,-1731,10187,-12850,-90,23,-86,33,-113,-119,33,26
,117,2018/03/15 01:38:50.08,-1764,10224,-12848,-86,35,-76,53,-121,-129,25,11
,118,2018/03/15 01:38:50.09,-1751,10128,-12893,-72,52,-64,64,-124,-128,10,0
,119,2018/03/15 01:38:50.10,-1779,10085,-12901,-59,69,-52,77,-128,-129,-5,-12
,120,2018/03/15 01:38:50.11,-1880,10043,-12849,-52,79,-43,91,-131,-134,-13,-24
,121,2018/03/15 01:38:50.12,-1785,10006,-12782,-43,87,-41,93,-130,-134,-22,-26
,122,2018/03/15 01:38:50.13,-1787,9973,-12814,-34,94,-25,111,-128,-136,-30,-43
,123,2018/03/15 01:38:50.14,-1799,9932,-12878,-26,104,-19,114,-130,-133,-39,-47
,124,2018/03/15 01:38:50.15,-1777,9931,-12773,-17,112,-16,116,-129,-132,-47,-50
,125,2018/03/15 01:38:50.16,-1718,9501,-12393,-23,109,-19,117,-132,-136,-43,-49
,126,2018/03/15 01:38:50.17,-2004,9648,-12867,-25,115,-22,116,-140,-138,-45,-47
,127,2018/03/15 01:38:50.18,-1688,10154,-13108,-22,118,-16,120,-140,-136,-48,-52
,128,2018/03/15 01:38:50.19,-1886,9839,-12861,-16,114,-21,112,-130,-133,-49,-45
,129,2018/03/15 01:38:50.20,-1804,10389,-12982,-21,106,-22,106,-127,-128,-42,-42
,130,2018/03/15 01:38:50.21,-1754,10305,-12838,-27,98,-22,109,-125,-131,-35,-43
,131,2018/03/15 01:38:50.22,-1887,10224,-12771,-26,107,-27,104,-133,-131,-40,-38
,132,2018/03/15 01:38:50.23,-1831,10265,-12662,-31,98,-22,110,-129,-132,-33,-44
,133,2018/03/15 01:38:50.24,-1895,10034,-12728,-37,88,-33,94,-125,-127,-25,-30
,134,2018/03/15 01:38:50.25,-1894,9948,-12818,-27,100,-38,94,-127,-132,-36,-28
,135,2018/03/15 01:38:50.26,-1857,10081,-12799,-41,85,-35,91,-126,-126,-22,-28
,136,2018/03/15 01:38:50.27,-1875,9965,-12774,-37,88,-34,91,-125,-125,-25,-28
,137,2018/03/15 01:38:50.28,-1850,9790,-12878,-32,92,-28,98,-124,-126,-30,-35
,138,2018/03/15 01:38:50.29,-1850,9926,-12799,-29,89,-28,98,-118,-126,-30,-35
,139,2018/03/15 01:38:50.30,-1803,9903,-12867,-27,93,-22,96,-120,-118,-33,-37
,140,2018/03/15 01:38:50.31,-1917,10003,-12844,-27,82,-12,96,-109,-108,-27,-42
,141,2018/03/15 01:38:50.32,-1884,10085,-12799,-16,86,-14,91,-102,-105,-35,-38
,142,2018/03/15 01:38:50.33,-1845,10050,-12774,-15,88,-14,98,-103,-112,-36,-42
,143,2018/03/15 01:38:50.34,-1904,10121,-12798,-14,93,-15,102,-107,-117,-39,-43
,144,2018/03/15 01:38:50.35,-1914,10114,-12806,-21,96,-24,100,-117,-124,-37,-38
,145,2018/03/15 01:38:50.36,-1907,10198,-12770,-28,93,-22,105,-121,-127,-32,-41
,146,2018/03/15 01:38:50.37,-1904,10147,-12776,-28,95,-24,102,-123,-126,-33,-39
,147,2018/03/15 01:38:50.38,-1914,10120,-12742,-22,103,-17,110,-125,-127,-40,-46
,148,2018/03/15 01:38:50.39,-1919,10170,-12824,-24,106,-18,114,-130,-132,-41,-48
,149,2018/03/15 01:38:50.40,-1948,9999,-12785,-22,112,-22,112,-134,-134,-45,-45
,150,2018/03/15 01:38:50.41,-1993,9933,-12884,-26,105,-24,113,-131,-137,-39,-44
,151,2018/03/15 01:38:50.42,-1906,10063,-12874,-29,104,-26,112,-133,-138,-37,-43
,152,2018/03/15 01:38:50.43,-1904,10010,-12747,-25,112,-21,120,-137,-141,-43,-49
,153,2018/03/15 01:38:50.44,-1951,9967,-12794,-28,109,-22,120,-137,-142,-40,-49
,154,2018/03/15 01:38:50.45,-1924,10090,-12923,-26,112,-24,115,-138,-139,-43,-45
,155,2018/03/15 01:38:50.46,-2026,10005,-12907,-28,108,-19,118,-136,-137,-40,-49
,156,2018/03/15 01:38:50.47,-1959,9974,-12873,-23,109,-21,112,-132,-133,-43,-45
,157,2018/03/15 01:38:50.48,-1932,9972,-12857,-22,109,-27,113,-131,-140,-43,-43
,158,2018/03/15 01:38:50.49,-1920,10041,-12777,-32,105,-31,110,-137,-141,-36,-39
,159,2018/03/15 01:38:50.50,-1916,10057,-12701,-33,103,-32,106,-136,-138,-35,-37
,160,2018/03/15 01:38:50.51,-1930,10046,-12647,-33,100,-26,111,-133,-137,-33,-42
,161,2018/03/15 01:38:50.52,-2013,10047,-12779,-32,100,-30,106,-132,-136,-34,-38
,162,2018/03/15 01:38:50.53,-1929,10081,-12821,-33,103,-30,109,-136,-139,-35,-39
,163,2018/03/15 01:38:50.54,-1935,10212,-12891,-37,100,-32,107,-137,-139,-31,-37
,164,2018/03/15 01:38:50.55,-1983,10147,-12844,-39,103,-41,101,-142,-142,-32,-30
,165,2018/03/15 01:38:50.56,-2006,10240,-12977,-46,101,-44,109,-147,-153,-27,-32
,166,2018/03/15 01:38:50.57,-2033,10258,-12954,-49,100,-45,107,-149,-152,-25,-31
,167,2018/03/15 01:38:50.58,-2016,10187,-12919,-45,105,-44,109,-150,-153,-30,-32
,168,2018/03/15 01:38:50.59,-2123,10213,-12947,-48,103,-45,109,-151,-154,-27,-32
,169,2018/03/15 01:38:50.60,-2096,10176,-12968,-49,99,-47,103,-148,-150,-25,-28
,170,2018/03/15 01:38:50.61,-2091,10086,-12895,-48,99,-45,109,-147,-154,-25,-32
,171,2018/03/15 01:38:50.62,-2177,10026,-12810,-52,98,-48,106,-150,-154,-23,-29
,172,2018/03/15 01:38:50.63,-2221,9916,-12766,-49,108,-41,106,-157,-147,-29,-32
,173,2018/03/15 01:38:50.64,-2244,9731,-12889,-44,102,-31,118,-146,-149,-29,-43
,174,2018/03/15 01:38:50.65,-2308,9931,-13101,-42,102,-45,102,-144,-147,-30,-28
,175,2018/03/15 01:38:50.66,-2391,10191,-13001,-38,104,-44,105,-142,-149,-33,-30
,176,2018/03/15 01:38:50.67,-2431,10128,-12810,-51,93,-45,96,-144,-141,-21,-25
,177,2018/03/15 01:38:50.68,-2448,9964,-12671,-48,92,-48,93,-140,-141,-22,-22
,178,2018/03/15 01:38:50.69,-2572,9859,-12643,-49,85,-46,93,-134,-139,-18,-23
,179,2018/03/15 01:38:50.70,-2505,9748,-12872,-53,85,-59,80,-138,-139,-16,-10
,180,2018/03/15 01:38:50.71,-2655,9760,-12892,-54,84,-50,90,-138,-140,-15,-20
,181,2018/03/15 01:38:50.72,-2709,9747,-12923,-59,75,-53,86,-134,-139,-8,-16
,182,2018/03/15 01:38:50.73,-2637,9685,-12796,-52,83,-53,85,-135,-138,-15,-16
,183,2018/03/15 01:38:50.74,-2689,9747,-12728,-58,74,-54,84,-132,-138,-8,-15
,184,2018/03/15 01:38:50.75,-2791,9543,-12788,-57,77,-58,79,-134,-137,-10,-10
,185,2018/03/15 01:38:50.76,-3070,9674,-12805,-62,74,-57,81,-136,-138,-6,-12
,186,2018/03/15 01:38:50.77,-2828,9749,-12736,-59,76,-52,88,-135,-140,-8,-18
,187,2018/03/15 01:38:50.78,-2846,9645,-12712,-57,80,-58,81,-137,-139,-11,-11
,188,2018/03/15 01:38:50.79,-2915,9422,-12556,-66,74,-61,79,-140,-140,-4,-9
,189,2018/03/15 01:38:50.80,-2944,9378,-12752,-64,76,-56,83,-140,-139,-6,-13
,190,2018/03/15 01:38:50.81,-2962,9525,-12853,-53,88,-49,94,-141,-143,-17,-22
,191,2018/03/15 01:38:50.82,-3170,9224,-12785,-51,87,-39,102,-138,-141,-18,-31
,192,2018/03/15 01:38:50.83,-2871,9301,-12819,-29,108,-16,122,-137,-138,-39,-53
,193,2018/03/15 01:38:50.84,-2850,9389,-12742,-11,122,2,139,-133,-137,-55,-70
,194,2018/03/15 01:38:50.85,-2948,9250,-12716,-3,128,-3,131,-131,-134,-62,-64
,195,2018/03/15 01:38:50.86,-3023,9350,-12684,-1,129,9,142,-130,-133,-64,-75
,196,2018/03/15 01:38:50.87,-3020,9419,-12730,6,135,11,145,-129,-134,-70,-78
,197,2018/03/15 01:38:50.88,-3024,9504,-12846,4,136,4,133,-132,-129,-70,-68
,198,2018/03/15 01:38:50.89,-3090,9570,-12746,-1,131,0,131,-132,-131,-65,-65
,199,2018/03/15 01:38:50.90,-3001,9685,-12727,-8,123,-7,125,-131,-132,-57,-59
,200,2018/03/15 01:38:50.91,-2996,9687,-12707,-9,121,-10,125,-130,-135,-56,-57
,201,2018/03/15 01:38:50.92,-2957,9721,-12734,-19,111,-16,119,-130,-135,-46,-51
,202,2018/03/15 01:38:50.93,-2854,9712,-12754,-21,112,-22,115,-133,-137,-45,-46
,203,2018/03/15 01:38:50.94,-2848,9821,-12812,-25,109,-21,119,-134,-140,-42,-49
,204,2018/03/15 01:38:50.95,-2924,9754,-12816,-27,108,-28,111,-135,-139,-40,-41
,205,2018/03/15 01:38:50.96,-2866,9640,-12829,-30,107,-28,112,-137,-140,-38,-42
,206,2018/03/15 01:38:50.97,-2924,9748,-12782,-37,99,-33,105,-136,-138,-31,-36
,207,2018/03/15 01:38:50.98,-2934,9788,-12806,-40,96,-46,95,-136,-141,-28,-24
,208,2018/03/15 01:38:50.99,-3001,9861,-12818,-52,87,-53,87,-139,-140,-17,-17
,209,2018/03/15 01:38:51.00,-2940,9840,-12838,-56,75,-57,79,-131,-136,-9,-11
,210,2018/03/15 01:38:51.01,-2911,9771,-12772,-58,78,-57,81,-136,-138,-10,-12
,211,2018/03/15 01:38:51.02,-2928,9799,-12780,-64,69,-62,76,-133,-138,-2,-7
,212,2018/03/15 01:38:51.03,-2934,9837,-12753,-66,68,-66,70,-134,-136,-1,-2
,213,2018/03/15 01:38:51.04,-2918,9789,-12808,-64,72,-62,74,-136,-136,-4,-6
,214,2018/03/15 01:38:51.05,-2959,9802,-12842,-69,62,-61,74,-131,-135,3,-6
,215,2018/03/15 01:38:51.06,-2945,9777,-12753,-64,67,-63,68,-131,-131,-1,-2
,216,2018/03/15 01:38:51.07,-2929,9727,-12841,-55,67,-59,71,-122,-130,-6,-6
,217,2018/03/15 01:38:51.08,-2891,9801,-12936,-58,67,-58,68,-125,-126,-4,-5
,218,2018/03/15 01:38:51.09,-2999,9763,-12930,-62,68,-60,74,-130,-134,-3,-7
,219,2018/03/15 01:38:51.10,-2892,9742,-12747,-69,64,-66,71,-133,-137,2,-2
,220,2018/03/15 01:38:51.11,-2899,9843,-12886,-70,66,-68,71,-136,-139,2,-1
,221,2018/03/15 01:38:51.12,-2895,9780,-12818,-71,62,-64,72,-133,-136,4,-4
,222,2018/03/15 01:38:51.13,-2938,9750,-12794,-67,62,-61,69,-129,-130,2,-4
,223,2018/03/15 01:38:51.14,-2930,9604,-12846,-60,68,-65,65,-128,-130,-4,0
,224,2018/03/15 01:38:51.15,-2956,9750,-12835,-64,65,-62,71,-129,-133,0,-4
,225,2018/03/15 01:38:51.16,-2899,9685,-12884,-64,71,-67,68,-135,-135,-3,0
,226,2018/03/15 01:38:51.17,-2758,9616,-12855,-68,60,-63,72,-128,-135,4,-4
,227,2018/03/15 01:38:51.18,-2909,9657,-12767,-67,60,-68,62,-127,-130,3,3
,228,2018/03/15 01:38:51.19,-2862,9728,-12656,-66,60,-65,66,-126,-131,3,0
,229,2018/03/15 01:38:51.20,-2859,9721,-12704,-72,53,-68,61,-125,-129,9,3
,230,2018/03/15 01:38:51.21,-2830,9778,-12749,-69,57,-68,60,-126,-128,6,4
,231,2018/03/15 01:38:51.22,-2847,9776,-12793,-71,53,-62,67,-124,-129,9,-2
,232,2018/03/15 01:38:51.23,-2866,9762,-12853,-67,61,-66,68,-128,-134,3,-1
,233,2018/03/15 01:38:51.24,-2885,9778,-12929,-68,66,-64,75,-134,-139,1,-5
,234,2018/03/15 01:38:51.25,-2830,9777,-12845,-72,64,-65,71,-136,-136,4,-3
,235,2018/03/15 01:38:51.26,-2848,9772,-12898,-64,73,-61,74,-137,-135,-4,-6
,236,2018/03/15 01:38:51.27,-2877,9836,-12850,-64,72,-57,80,-136,-137,-4,-11
,237,2018/03/15 01:38:51.28,-2922,9918,-12771,-62,75,-64,73,-137,-137,-6,-4
,238,2018/03/15 01:38:51.29,-2882,9859,-12802,-62,73,-63,74,-135,-137,-5,-5
,239,2018/03/15 01:38:51.30,-2810,9823,-12780,-67,63,-65,73,-130,-138,2,-4
,240,2018/03/15 01:38:51.31,-2866,9824,-12777,-61,71,-61,77,-132,-138,-5,-8
,241,2018/03/15 01:38:51.32,-2852,9846,-12799,-65,69,-56,82,-134,-138,-2,-13
,242,2018/03/15 01:38:51.33,-2885,9875,-12819,-58,73,-55,77,-131,-132,-7,-11
,243,2018/03/15 01:38:51.34,-2844,9832,-12830,-57,73,-52,81,-130,-133,-8,-14
,244,2018/03/15 01:38:51.35,-2781,9808,-12806,-59,70,-54,79,-129,-133,-5,-12
,245,2018/03/15 01:38:51.36,-2853,9842,-12802,-57,75,-55,80,-132,-135,-9,-12
,246,2018/03/15 01:38:51.37,-2904,9763,-12795,-57,76,-49,88,-133,-137,-9,-19
,247,2018/03/15 01:38:51.38,-2875,9741,-12792,-57,80,-57,81,-137,-138,-11,-12
,248,2018/03/15 01:38:51.39,-2835,9710,-12779,-56,83,-54,86,-139,-140,-13,-16
,249,2018/03/15 01:38:51.40,-2814,9738,-12745,-54,77,-49,89,-131,-138,-11,-20
,250,2018/03/15 01:38:51.41,-2787,9743,-12722,-44,87,-44,92,-131,-136,-21,-24
,251,2018/03/15 01:38:51.42,-2878,9709,-12804,-48,85,-44,96,-133,-140,-18,-26
,252,2018/03/15 01:38:51.43,-2834,9709,-12800,-50,85,-47,90,-135,-137,-17,-21
,253,2018/03/15 01:38:51.44,-2734,9733,-12757,-47,83,-42,89,-130,-131,-18,-23
,254,2018/03/15 01:38:51.45,-2765,9736,-12720,-48,81,-40,86,-129,-126,-16,-23
,255,2018/03/15 01:38:51.46,-2813,9779,-12768,-42,82,-38,92,-124,-130,-20,-27
,256,2018/03/15 01:38:51.47,-2685,9695,-12801,-44,82,-36,89,-126,-125,-19,-26
,257,2018/03/15 01:38:51.48,-2653,9734,-12851,-33,89,-38,83,-122,-121,-28,-22
,258,2018/03/15 01:38:51.49,-2781,9768,-12833,-38,83,-30,87,-121,-117,-22,-28
,259,2018/03/15 01:38:51.50,-2682,9799,-12832,-42,81,-40,88,-123,-128,-19,-24
,260,2018/03/15 01:38:51.51,-2767,9819,-12804,-44,83,-46,84,-127,-130,-19,-19
,261,2018/03/15 01:38:51.52,-2716,9770,-12869,-49,77,-46,85,-126,-131,-14,-19
,262,2018/03/15 01:38:51.53,-2875,9736,-12844,-51,77,-48,86,-128,-134,-13,-19
,263,2018/03/15 01:38:51.54,-2819,9819,-12820,-52,79,-44,93,-131,-137,-13,-24
,264,2018/03/15 01:38:51.55,-2731,9838,-12861,-48,84,-48,84,-132,-132,-18,-18
,265,2018/03/15 01:38:51.56,-2798,9859,-12833,-41,88,-36,89,-129,-125,-23,-26
,266,2018/03/15 01:38:51.57,-2704,9858,-12799,-38,86,-35,89,-124,-124,-24,-27
,267,2018/03/15 01:38:51.58,-2746,9857,-12757,-43,79,-38,88,-122,-126,-18,-25
,268,2018/03/15 01:38:51.59,-2787,9854,-12797,-42,84,-41,87,-126,-128,-21,-23
,269,2018/03/15 01:38:51.60,-2764,9812,-12810,-42,77,-37,89,-119,-126,-17,-26
,270,2018/03/15 01:38:51.61,-2736,9824,-12802,-37,83,-40,85,-120,-125,-23,-22
,271,2018/03/15 01:38:51.62,-2703,9774,-12810,-38,80,-36,89,-118,-125,-21,-26
,272,2018/03/15 01:38:51.63,-2683,9849,-12746,-38,79,-37,87,-117,-124,-20,-25
,273,2018/03/15 01:38:51.64,-2782,9840,-12814,-38,84,-37,88,-122,-125,-23,-25
,274,2018/03/15 01:38:51.65,-2806,9830,-12799,-44,78,-40,88,-122,-128,-17,-24
,275,2018/03/15 01:38:51.66,-2755,9753,-12797,-45,80,-42,85,-125,-127,-17,-21
,276,2018/03/15 01:38:51.67,-2762,9789,-12821,-46,80,-40,88,-126,-128,-17,-24
,277,2018/03/15 01:38:51.68,-2796,9847,-12776,-47,76,-42,81,-123,-123,-14,-19
,278,2018/03/15 01:38:51.69,-2714,9830,-12768,-43,76,-44,76,-119,-120,-16,-16
,279,2018/03/15 01:38:51.70,-2711,9849,-12764,-46,68,-40,79,-114,-119,-11,-19
,280,2018/03/15 01:38:51.71,-2718,9818,-12760,-40,73,-40,78,-113,-118,-16,-19
,281,2018/03/15 01:38:51.72,-2728,9877,-12791,-39,76,-37,85,-115,-122,-18,-24
,282,2018/03/15 01:38:51.73,-2706,9855,-12806,-45,74,-40,82,-119,-122,-14,-21
,283,2018/03/15 01:38:51.74,-2772,9798,-12808,-42,78,-41,82,-120,-123,-18,-20
,284,2018/03/15 01:38:51.75,-2745,9846,-12813,-46,74,-40,86,-120,-126,-14,-23
,285,2018/03/15 01:38:51.76,-2746,9818,-12796,-46,77,-44,81,-123,-125,-15,-18
,286,2018/03/15 01:38:51.77,-2757,9808,-12748,-43,79,-36,90,-122,-126,-18,-27
,287,2018/03/15 01:38:51.78,-2759,9762,-12791,-41,79,-35,88,-120,-123,-19,-26
,288,2018/03/15 01:38:51.79,-2697,9789,-12818,-36,86,-37,89,-122,-126,-25,-26
,289,2018/03/15 01:38:51.80,-2729,9815,-12862,-41,83,-36,92,-124,-128,-21,-28
,290,2018/03/15 01:38:51.81,-2709,9754,-12796,-42,83,-43,82,-125,-125,-20,-19
,291,2018/03/15 01:38:51.82,-2733,9707,-12782,-42,78,-40,85,-120,-125,-18,-22
,292,2018/03/15 01:38:51.83,-2731,9710,-12820,-43,74,-41,84,-117,-125,-15,-21
,293,2018/03/15 01:38:51.84,-2790,9686,-12803,-38,82,-38,86,-120,-124,-22,-24
,294,2018/03/15 01:38:51.85,-2752,9754,-12750,-41,79,-35,89,-120,-124,-19,-27
,295,2018/03/15 01:38:51.86,-2674,9804,-12723,-44,84,-40,84,-128,-124,-20,-22
,296,2018/03/15 01:38:51.87,-2766,9876,-12693,-39,84,-37,94,-123,-131,-22,-28
,297,2018/03/15 01:38:51.88,-2727,9904,-12723,-41,82,-35,93,-123,-128,-20,-29
,298,2018/03/15 01:38:51.89,-2771,9942,-12781,-32,95,-33,93,-127,-126,-31,-30
,299,2018/03/15 01:38:51.90,-2728,9871,-12836,-35,87,-22,103,-122,-125,-26,-40
,300,2018/03/15 01:38:51.91,-2765,9827,-12902,-32,91,-29,92,-123,-121,-29,-31
,301,2018/03/15 01:38:51.92,-2739,9866,-12866,-29,92,-25,91,-121,-116,-31,-33
,302,2018/03/15 01:38:51.93,-2749,9853,-12848,-30,82,-26,85,-112,-111,-26,-29
,303,2018/03/15 01:38:51.94,-2749,9860,-12773,-25,86,-27,85,-111,-112,-30,-29
,304,2018/03/15 01:38:51.95,-2766,9820,-12768,-29,77,-23,91,-106,-114,-24,-34
,305,2018/03/15 01:38:51.96,-2728,9874,-12809,-28,81,-31,87,-109,-118,-26,-28
,306,2018/03/15 01:38:51.97,-2726,9851,-12828,-32,81,-34,87,-113,-121,-24,-26
,307,2018/03/15 01:38:51.98,-2786,9866,-12783,-40,79,-37,87,-119,-124,-19,-25
,308,2018/03/15 01:38:51.99,-2769,9849,-12881,-35,90,-40,87,-125,-127,-27,-23
,309,2018/03/15 01:38:52.00,-2789,9803,-12851,-41,85,-34,98,-126,-132,-22,-32
,310,2018/03/15 01:38:52.01,-2755,9780,-12801,-38,91,-31,102,-129,-133,-26,-35
,311,2018/03/15 01:38:52.02,-2651,9742,-12800,-33,97,-30,102,-130,-132,-32,-36
,312,2018/03/15 01:38:52.03,-2729,9797,-12777,-36,91,-25,102,-127,-127,-27,-38
,313,2018/03/15 01:38:52.04,-2837,9789,-12735,-27,104,-23,108,-131,-131,-38,-42
,314,2018/03/15 01:38:52.05,-2741,9685,-12788,-23,112,-13,125,-135,-138,-44,-56
,315,2018/03/15 01:38:52.06,-2758,9696,-12805,-18,121,-16,125,-139,-141,-51,-54
,316,2018/03/15 01:38:52.07,-2706,9668,-12712,-12,123,-12,126,-135,-138,-55,-57
,317,2018/03/15 01:38:52.08,-2703,9674,-12810,-13,113,-9,121,-126,-130,-50,-56
,318,2018/03/15 01:38:52.09,-2739,9688,-12736,-9,117,-13,115,-126,-128,-54,-51
,319,2018/03/15 01:38:52.10,-2717,9675,-12710,-18,108,-15,117,-126,-132,-45,-51
,320,2018/03/15 01:38:52.11,-2716,9654,-12767,-22,108,-17,118,-130,-135,-43,-50
,321,2018/03/15 01:38:52.12,-2750,9765,-12728,-18,116,-16,118,-134,-134,-49,-51
,322,2018/03/15 01:38:52.13,-2735,9769,-12760,-24,105,-17,116,-129,-133,-40,-49
,323,2018/03/15 01:38:52.14,-2745,9769,-12790,-21,108,-19,112,-129,-131,-43,-46
,324,2018/03/15 01:38:52.15,-2726,9859,-12804,-21,108,-16,119,-129,-135,-43,-51
,325,2018/03/15 01:38:52.16,-2695,9884,-12780,-21,110,-15,119,-131,-134,-44,-52
,326,2018/03/15 01:38:52.17,-2829,9868,-12793,-16,115,-15,118,-131,-133,-49,-51
,327,2018/03/15 01:38:52.18,-2735,9915,-12823,-21,108,-15,116,-129,-131,-43,-50
,328,2018/03/15 01:38:52.19,-2729,9869,-12807,-17,107,-17,108,-124,-125,-45,-45
,329,2018/03/15 01:38:52.20,-2783,9937,-12831,-16,108,-5,117,-124,-122,-46,-56
,330,2018/03/15 01:38:52.21,-2775,9972,-12822,-6,112,3,120,-118,-117,-53,-61
,331,2018/03/15 01:38:52.22,-2778,9967,-12695,6,126,6,129,-120,-123,-66,-67
,332,2018/03/15 01:38:52.23,-2738,9930,-12781,3,122,6,133,-119,-127,-62,-69
,333,2018/03/15 01:38:52.24,-2790,10017,-12768,3,123,-4,122,-120,-126,-63,-59
,334,2018/03/15 01:38:52.25,-2769,9950,-12718,-8,114,-10,120,-122,-130,-53,-55
,335,2018/03/15 01:38:52.26,-2849,9880,-12726,-22,105,-20,112,-127,-132,-41,-46
,336,2018/03/15 01:38:52.27,-2766,9829,-12825,-32,108,-25,115,-140,-140,-38,-45
,337,2018/03/15 01:38:52.28,-2766,9914,-12784,-30,108,-17,128,-138,-145,-39,-55
,338,2018/03/15 01:38:52.29,-2734,9860,-12783,-22,111,-23,112,-133,-135,-44,-44
,339,2018/03/15 01:38:52.30,-2792,9864,-12730,-16,114,-20,112,-130,-132,-49,-46
,340,2018/03/15 01:38:52.31,-2707,9829,-12739,-27,99,-18,105,-126,-123,-36,-43
,341,2018/03/15 01:38:52.32,-2705,9838,-12677,-26,102,-27,102,-128,-129,-38,-37
,342,2018/03/15 01:38:52.33,-2668,9890,-12705,-33,94,-26,104,-127,-130,-30,-39
,343,2018/03/15 01:38:52.34,-2795,9901,-12837,-33,94,-33,92,-127,-125,-30,-29
,344,2018/03/15 01:38:52.35,-2792,9931,-12765,-32,89,-32,95,-121,-127,-28,-31
,345,2018/03/15 01:38:52.36,-2664,9810,-12661,-35,83,-36,90,-118,-126,-24,-27
,346,2018/03/15 01:38:52.37,-2772,9744,-12814,-38,90,-42,85,-128,-127,-26,-21
,347,2018/03/15 01:38:52.38,-2666,9941,-12804,-40,90,-37,100,-130,-137,-25,-31
,348,2018/03/15 01:38:52.39,-2743,9844,-12659,-39,94,-42,93,-133,-135,-27,-25
,349,2018/03/15 01:38:52.40,-2597,9842,-12696,-41,91,-37,96,-132,-133,-25,-29
,350,2018/03/15 01:38:52.41,-2730,9815,-12740,-38,88,-31,99,-126,-130,-25,-34
,351,2018/03/15 01:38:52.42,-2658,9838,-12842,-34,95,-33,101,-129,-134,-30,-34
,352,2018/03/15 01:38:52.43,-2629,9830,-12805,-37,96,-32,107,-133,-139,-29,-37
,353,2018/03/15 01:38:52.44,-2731,9882,-12856,-37,98,-32,105,-135,-137,-30,-36
,354,2018/03/15 01:38:52.45,-2745,9986,-12789,-31,102,-28,108,-133,-136,-35,-40
,355,2018/03/15 01:38:52.46,-2769,10002,-12761,-36,95,-31,104,-131,-135,-29,-36
,356,2018/03/15 01:38:52.47,-2683,9916,-12709,-34,99,-32,100,-133,-132,-32,-34
,357,2018/03/15 01:38:52.48,-2788,9846,-12809,-37,98,-31,103,-135,-134,-30,-36
,358,2018/03/15 01:38:52.49,-2724,9930,-12815,-39,92,-39,92,-131,-131,-26,-26
,359,2018/03/15 01:38:52.50,-2677,9888,-12797,-42,88,-42,90,-130,-132,-23,-24
,360,2018/03/15 01:38:52.51,-2733,9783,-12801,-45,79,-43,89,-124,-132,-17,-23
,361,2018/03/15 01:38:52.52,-2756,9876,-12806,-43,83,-46,85,-126,-131,-20,-19
,362,2018/03/15 01:38:52.53,-2715,9785,-12932,-47,78,-44,89,-125,-133,-15,-22
,363,2018/03/15 01:38:52.54,-2727,9723,-12720,-51,80,-49,86,-131,-135,-14,-18
,364,2018/03/15 01:38:52.55,-2697,9728,-12705,-49,84,-48,88,-133,-136,-17,-20
,365,2018/03/15 01:38:52.56,-2725,9846,-12666,-55,76,-48,87,-131,-135,-10,-19
,366,2018/03/15 01:38:52.57,-2753,9841,-12670,-53,78,-55,80,-131,-135,-12,-12
,367,2018/03/15 01:38:52.58,-2718,9846,-12707,-60,75,-57,86,-135,-143,-7,-14
,368,2018/03/15 01:38:52.59,-2725,9905,-12766,-61,79,-60,87,-140,-147,-9,-13
,369,2018/03/15 01:38:52.60,-2660,9932,-12919,-59,85,-54,92,-144,-146,-13,-19
,370,2018/03/15 01:38:52.61,-2626,9907,-12922,-57,82,-50,94,-139,-144,-12,-22
,371,2018/03/15 01:38:52.62,-2628,9869,-12858,-53,87,-54,90,-140,-144,-17,-18
,372,2018/03/15 01:38:52.63,-2669,9905,-12856,-59,85,-54,92,-144,-146,-13,-19
,373,2018/03/15 01:38:52.64,-2721,9871,-12823,-62,86,-58,91,-148,-149,-12,-16
,374,2018/03/15 01:38:52.65,-2659,9838,-12748,-52,94,-52,94,-146,-146,-21,-21
,375,2018/03/15 01:38:52.66,-2705,9810,-12815,-54,87,-49,93,-141,-142,-16,-22
,376,2018/03/15 01:38:52.67,-2731,9832,-12785,-47,88,-48,93,-135,-141,-20,-22
,377,2018/03/15 01:38:52.68,-2637,9769,-12781,-55,84,-44,98,-139,-142,-14,-27
,378,2018/03/15 01:38:52.69,-2700,9737,-12737,-48,90,-45,98,-138,-143,-21,-26
,379,2018/03/15 01:38:52.70,-2641,9711,-12791,-47,87,-47,88,-134,-135,-20,-20
,380,2018/03/15 01:38:52.71,-2619,9682,-12773,-44,89,-47,90,-133,-137,-22,-21
,381,2018/03/15 01:38:52.72,-2737,9712,-12842,-50,86,-45,95,-136,-140,-18,-25
,382,2018/03/15 01:38:52.73,-2620,9742,-12763,-50,92,-47,101,-142,-148,-21,-27
,383,2018/03/15 01:38:52.74,-2714,9840,-12795,-53,91,-50,98,-144,-148,-19,-24
,384,2018/03/15 01:38:52.75,-2654,9789,-12743,-51,94,-55,91,-145,-146,-21,-18
,385,2018/03/15 01:38:52.76,-2684,9783,-12762,-55,89,-51,99,-144,-150,-17,-24
,386,2018/03/15 01:38:52.77,-2717,9758,-12792,-56,88,-52,95,-144,-147,-16,-21
,387,2018/03/15 01:38:52.78,-2697,9819,-12739,-51,91,-41,98,-142,-139,-20,-28
,388,2018/03/15 01:38:52.79,-2656,9806,-12763,-44,93,-36,98,-137,-134,-24,-31
,389,2018/03/15 01:38:52.80,-2716,9743,-12745,-35,103,-35,102,-138,-137,-34,-33
,390,2018/03/15 01:38:52.81,-2750,9804,-12744,-42,96,-41,105,-138,-146,-27,-32
,391,2018/03/15 01:38:52.82,-2682,9795,-12744,-43,96,-44,100,-139,-144,-26,-28
,392,2018/03/15 01:38:52.83,-2726,9870,-12812,-40,97,-34,102,-137,-136,-28,-34
,393,2018/03/15 01:38:52.84,-2726,9823,-12866,-35,95,-33,99,-130,-132,-30,-33
,394,2018/03/15 01:38:52.85,-2609,9811,-12898,-32,97,-33,97,-129,-130,-32,-32
,395,2018/03/15 01:38:52.86,-2686,9871,-12861,-33,92,-30,103,-125,-133,-29,-36
,396,2018/03/15 01:38:52.87,-2674,9846,-12844,-33,97,-34,102,-130,-136,-32,-34
,397,2018/03/15 01:38:52.88,-2672,9879,-12859,-33,97,-30,104,-130,-134,-32,-37
,398,2018/03/15 01:38:52.89,-2634,9904,-12852,-35,94,-32,100,-129,-132,-29,-34
,399,2018/03/15 01:38:52.90,-2700,9875,-12801,-35,94,-34,100,-129,-134,-29,-33
,400,2018/03/15 01:38:52.91,-2654,9883,-12830,-38,95,-30,110,-133,-140,-28,-40
,401,2018/03/15 01:38:52.92,-2625,9902,-12800,-37,102,-35,107,-139,-142,-32,-36
,402,2018/03/15 01:38:52.93,-2659,9884,-12789,-37,103,-36,107,-140,-143,-33,-35
,403,2018/03/15 01:38:52.94,-2834,9899,-12718,-44,93,-37,102,-137,-139,-24,-32
,404,2018/03/15 01:38:52.95,-2702,9835,-12797,-41,95,-40,99,-136,-139,-27,-29
,405,2018/03/15 01:38:52.96,-2760,9875,-12851,-44,94,-38,106,-138,-144,-25,-34
,406,2018/03/15 01:38:52.97,-2783,9861,-12766,-45,95,-42,97,-140,-139,-25,-27
,407,2018/03/15 01:38:52.98,-2750,9863,-12770,-44,96,-40,98,-140,-138,-26,-29
,408,2018/03/15 01:38:52.99,-2785,9855,-12787,-46,90,-40,97,-136,-137,-22,-28
,409,2018/03/15 01:38:53.00,-2762,9854,-12847,-42,93,-43,93,-135,-136,-25,-25
,410,2018/03/15 01:38:53.01,-2724,9799,-12808,-43,86,-41,96,-129,-137,-21,-27
,411,2018/03/15 01:38:53.02,-2706,9813,-12813,-47,84,-48,88,-131,-136,-18,-20
,412,2018/03/15 01:38:53.03,-2703,9797,-12754,-48,85,-49,90,-133,-139,-18,-20
,413,2018/03/15 01:38:53.04,-2708,9764,-12733,-55,78,-47,88,-133,-135,-11,-20
,414,2018/03/15 01:38:53.05,-2621,9813,-12744,-46,83,-43,88,-129,-131,-18,-22
,415,2018/03/15 01:38:53.06,-2742,9751,-12737,-36,88,-35,99,-124,-134,-26,-32
,416,2018/03/15 01:38:53.07,-2672,9800,-12750,-43,88,-41,94,-131,-135,-22,-26
,417,2018/03/15 01:38:53.08,-2626,9815,-12754,-46,88,-47,90,-134,-137,-21,-21
,418,2018/03/15 01:38:53.09,-2683,9784,-12765,-56,73,-47,88,-129,-135,-8,-20
,419,2018/03/15 01:38:53.10,-2621,9848,-12810,-50,81,-48,88,-131,-136,-15,-20
,420,2018/03/15 01:38:53.11,-2658,9808,-12849,-49,79,-44,89,-128,-133,-15,-22
,421,2018/03/15 01:38:53.12,-2663,9847,-12821,-45,85,-54,81,-130,-135,-20,-13
,422,2018/03/15 01:38:53.13,-2702,9788,-12811,-61,73,-58,78,-134,-136,-6,-10
,423,2018/03/15 01:38:53.14,-2747,9799,-12853,-72,59,-66,67,-131,-133,6,0
,424,2018/03/15 01:38:53.15,-2628,9785,-12800,-70,56,-69,56,-126,-125,7,6
,425,2018/03/15 01:38:53.16,-2691,9802,-12814,-73,47,-71,49,-120,-120,13,11
,426,2018/03/15 01:38:53.17,-2631,9772,-12805,-83,36,-88,32,-119,-120,23,28
,427,2018/03/15 01:38:53.18,-2789,9712,-12797,-102,15,-109,11,-117,-120,43,49
,428,2018/03/15 01:38:53.19,-2644,9751,-12839,-122,-8,-128,-14,-114,-114,65,71
,429,2018/03/15 01:38:53.20,-2673,9703,-12846,-128,-12,-127,-10,-116,-117,70,68
,430,2018/03/15 01:38:53.21,-2756,9715,-12768,-126,-6,-118,3,-120,-121,66,57
,431,2018/03/15 01:38:53.22,-2749,9864,-12695,-118,5,-108,21,-123,-129,56,43
,432,2018/03/15 01:38:53.23,-2787,9848,-12732,-101,24,-95,38,-125,-133,38,28
,433,2018/03/15 01:38:53.24,-2713,9918,-12754,-88,38,-77,58,-126,-135,25,9
,434,2018/03/15 01:38:53.25,-2699,9900,-12787,-70,58,-65,67,-128,-132,6,-1
,435,2018/03/15 01:38:53.26,-2630,9942,-12778,-59,70,-48,85,-129,-133,-5,-18
,436,2018/03/15 01:38:53.27,-2730,9905,-12881,-49,78,-40,90,-127,-130,-14,-25
,437,2018/03/15 01:38:53.28,-2631,9888,-12879,-36,91,-30,103,-127,-133,-27,-36
,438,2018/03/15 01:38:53.29,-2678,9933,-12894,-26,103,-20,119,-129,-139,-38,-49
,439,2018/03/15 01:38:53.30,-2650,9898,-12883,-22,115,-17,124,-137,-141,-46,-53
,440,2018/03/15 01:38:53.31,-2725,9903,-12843,-15,121,-6,132,-136,-138,-53,-63
,441,2018/03/15 01:38:53.32,-2676,9899,-12821,-10,120,-4,128,-130,-132,-55,-62
,442,2018/03/15 01:38:53.33,-2673,9809,-12824,-4,126,-1,132,-130,-133,-61,-65
,443,2018/03/15 01:38:53.34,-2685,9831,-12804,-6,126,2,138,-132,-136,-60,-70
,444,2018/03/15 01:38:53.35,-2713,9787,-12813,-4,130,0,135,-134,-135,-63,-67
,445,2018/03/15 01:38:53.36,-2703,9835,-12775,-1,132,5,140,-133,-135,-65,-72
,446,2018/03/15 01:38:53.37,-2688,9797,-12837,-1,128,3,137,-129,-134,-63,-70
,447,2018/03/15 01:38:53.38,-2704,9766,-12820,-1,130,1,130,-131,-129,-64,-65
,448,2018/03/15 01:38:53.39,-2680,9856,-12774,-3,126,4,135,-129,-131,-61,-69
,449,2018/03/15 01:38:53.40,-2693,9783,-12815,-3,128,-1,132,-131,-133,-62,-65
,450,2018/03/15 01:38:53.41,-2691,9819,-12795,-4,130,-1,133,-134,-134,-63,-66
,451,2018/03/15 01:38:53.42,-2734,9761,-12723,-5,124,-1,128,-129,-129,-59,-63
,452,2018/03/15 01:38:53.43,-2741,9748,-12766,-4,125,-5,121,-129,-126,-60,-58
,453,2018/03/15 01:38:53.44,-2691,9780,-12791,-12,115,-10,120,-127,-130,-51,-55
,454,2018/03/15 01:38:53.45,-2722,9678,-12797,-14,108,-17,111,-122,-128,-47,-47
,455,2018/03/15 01:38:53.46,-2721,9810,-12758,-14,110,-12,116,-124,-128,-48,-52
,456,2018/03/15 01:38:53.47,-2785,9738,-12797,-11,113,-17,116,-124,-133,-51,-49
,457,2018/03/15 01:38:53.48,-2718,9774,-12777,-17,110,-15,113,-127,-128,-46,-49
,458,2018/03/15 01:38:53.49,-2780,9824,-12819,-16,111,-14,116,-127,-130,-47,-51
,459,2018/03/15 01:38:53.50,-2751,9793,-12783,-25,97,-18,111,-122,-129,-36,-46
,460,2018/03/15 01:38:53.51,-2698,9739,-12823,-19,107,-26,110,-126,-136,-44,-42
,461,2018/03/15 01:38:53.52,-2654,9782,-12901,-28,99,-25,108,-127,-133,-35,-41
,462,2018/03/15 01:38:53.53,-2711,9770,-12836,-21,111,-28,109,-132,-137,-45,-40
,463,2018/03/15 01:38:53.54,-2671,9839,-12821,-33,103,-20,120,-136,-140,-35,-50
,464,2018/03/15 01:38:53.55,-2717,9772,-12851,-30,106,-27,112,-136,-139,-38,-42
,465,2018/03/15 01:38:53.56,-2686,9775,-12865,-27,109,-25,115,-136,-140,-41,-45
,466,2018/03/15 01:38:53.57,-2639,9835,-12841,-32,104,-30,110,-136,-140,-36,-40
,467,2018/03/15 01:38:53.58,-2721,9850,-12838,-32,106,-33,106,-138,-139,-37,-36
,468,2018/03/15 01:38:53.59,-2747,9810,-12818,-29,107,-25,115,-136,-140,-39,-45
,469,2018/03/15 01:38:53.60,-2687,9837,-12747,-30,107,-25,109,-137,-134,-38,-42
,470,2018/03/15 01:38:53.61,-2776,9796,-12819,-28,112,-28,115,-140,-143,-42,-43
,471,2018/03/15 01:38:53.62,-2745,9854,-12866,-35,105,-31,112,-140,-143,-35,-40
,472,2018/03/15 01:38:53.63,-2695,9896,-12760,-32,106,-27,113,-138,-140,-37,-43
,473,2018/03/15 01:38:53.64,-2725,9831,-12844,-30,105,-24,114,-135,-138,-37,-45
,474,2018/03/15 01:38:53.65,-2744,9843,-12828,-31,103,-29,110,-134,-139,-36,-40
,475,2018/03/15 01:38:53.66,-2716,9832,-12791,-33,106,-31,110,-139,-141,-36,-39
,476,2018/03/15 01:38:53.67,-2679,9852,-12841,-37,101,-32,110,-138,-142,-32,-39
,477,2018/03/15 01:38:53.68,-2726,9812,-12795,-36,99,-38,98,-135,-136,-31,-30
,478,2018/03/15 01:38:53.69,-2639,9763,-12775,-34,92,-31,100,-126,-131,-29,-34
,479,2018/03/15 01:38:53.70,-2693,9789,-12903,-34,94,-29,102,-128,-131,-30,-36
,480,2018/03/15 01:38:53.71,-2689,9771,-12865,-27,105,-23,113,-132,-136,-39,-45
,481,2018/03/15 01:38:53.72,-2724,9721,-12847,-29,106,-23,115,-135,-138,-38,-46
,482,2018/03/15 01:38:53.73,-2726,9751,-12841,-28,111,-28,110,-139,-138,-41,-41
,483,2018/03/15 01:38:53.74,-2697,9791,-12864,-31,107,-24,115,-138,-139,-38,-45
,484,2018/03/15 01:38:53.75,-2732,9826,-12805,-31,104,-26,108,-135,-134,-36,-41
,485,2018/03/15 01:38:53.76,-2709,9831,-12678,-26,106,-24,106,-132,-130,-40,-41
,486,2018/03/15 01:38:53.77,-2751,9786,-12807,-30,100,-24,106,-130,-130,-35,-41
,487,2018/03/15 01:38:53.78,-2775,9782,-12843,-27,104,-29,106,-131,-135,-38,-38
,488,2018/03/15 01:38:53.79,-2667,9756,-12841,-28,109,-28,115,-137,-143,-40,-43
,489,2018/03/15 01:38:53.80,-2743,9788,-12829,-33,103,-30,108,-136,-138,-35,-39
,490,2018/03/15 01:38:53.81,-2715,9730,-12885,-31,105,-32,107,-136,-139,-37,-37
,491,2018/03/15 01:38:53.82,-2736,9682,-12825,-37,98,-31,109,-135,-140,-30,-39
,492,2018/03/15 01:38:53.83,-2726,9635,-12830,-35,99,-36,101,-134,-137,-32,-32
,493,2018/03/15 01:38:53.84,-2739,9730,-12814,-34,96,-32,104,-130,-136,-31,-36
,494,2018/03/15 01:38:53.85,-2737,9641,-12847,-39,93,-35,103,-132,-138,-27,-34
,495,2018/03/15 01:38:53.86,-2681,9676,-12840,-35,100,-34,105,-135,-139,-32,-35
,496,2018/03/15 01:38:53.87,-2682,9627,-12826,-39,97,-33,109,-136,-142,-29,-38
,497,2018/03/15 01:38:53.88,-2757,9578,-12854,-30,105,-36,104,-135,-140,-37,-34
,498,2018/03/15 01:38:53.89,-2778,9610,-12811,-34,103,-30,107,-137,-137,-34,-38
,499,2018/03/15 01:38:53.90,-2731,9631,-12771,-39,94,-35,103,-133,-138,-27,-34
,500,2018/03/15 01:38:53.91,-2750,9700,-12715,-46,87,-36,99,-133,-135,-20,-31
,501,2018/03/15 01:38:53.92,-2742,9685,-12695,-42,88,-44,95,-130,-139,-23,-25
,502,2018/03/15 01:38:53.93,-2769,9710,-12765,-41,91,-38,98,-132,-136,-25,-30
,503,2018/03/15 01:38:53.94,-2752,9757,-12786,-34,102,-34,103,-136,-137,-34,-34
,504,2018/03/15 01:38:53.95,-2731,9819,-12881,-41,90,-33,100,-131,-133,-24,-33
,505,2018/03/15 01:38:53.96,-2632,9775,-12856,-47,85,-49,84,-132,-133,-19,-17
,506,2018/03/15 01:38:53.97,-2797,9869,-12984,-53,76,-45,88,-129,-133,-11,-21
,507,2018/03/15 01:38:53.98,-2782,9956,-12973,-52,81,-52,87,-133,-139,-14,-17
,508,2018/03/15 01:38:53.99,-2671,10023,-12932,-53,88,-54,95,-141,-149,-17,-20
,509,2018/03/15 01:38:54.00,-2784,10042,-12853,-63,82,-58,89,-145,-147,-9,-15
,510,2018/03/15 01:38:54.01,-2792,9906,-12853,-59,87,-52,92,-146,-144,-14,-20
,511,2018/03/15 01:38:54.02,-2753,9904,-12814,-54,89,-45,101,-143,-146,-17,-28
,512,2018/03/15 01:38:54.03,-2729,9828,-12826,-54,87,-52,94,-141,-146,-16,-21
,513,2018/03/15 01:38:54.04,-2779,9795,-12752,-52,93,-48,100,-145,-148,-20,-26
,514,2018/03/15 01:38:54.05,-2807,9695,-12766,-58,88,-51,96,-146,-147,-15,-22
,515,2018/03/15 01:38:54.06,-2816,9677,-12775,-56,92,-56,92,-148,-148,-18,-18
,516,2018/03/15 01:38:54.07,-2718,9626,-12875,-56,86,-52,99,-142,-151,-15,-23
,517,2018/03/15 01:38:54.08,-2756,9710,-12751,-53,92,-51,100,-145,-151,-19,-24
,518,2018/03/15 01:38:54.09,-2730,9727,-12796,-47,104,-46,106,-151,-152,-28,-30
,519,2018/03/15 01:38:54.10,-2698,9744,-12848,-52,95,-46,104,-147,-150,-21,-29
,520,2018/03/15 01:38:54.11,-2732,9829,-12852,-48,98,-48,100,-146,-148,-25,-26
,521,2018/03/15 01:38:54.12,-2835,9794,-12838,-47,94,-46,104,-141,-150,-23,-29
,522,2018/03/15 01:38:54.13,-2763,9890,-12759,-51,91,-52,96,-142,-148,-20,-22
,523,2018/03/15 01:38:54.14,-2774,9858,-12725,-53,91,-51,94,-144,-145,-19,-21
,524,2018/03/15 01:38:54.15,-2769,9824,-12775,-56,82,-51,90,-138,-141,-13,-19
,525,2018/03/15 01:38:54.16,-2830,9765,-12731,-52,82,-51,87,-134,-138,-15,-18
,526,2018/03/15 01:38:54.17,-2697,9725,-12745,-51,85,-44,96,-136,-140,-17,-26
,527,2018/03/15 01:38:54.18,-2708,9731,-12722,-50,84,-47,90,-134,-137,-17,-21
,528,2018/03/15 01:38:54.19,-2690,9739,-12843,-45,90,-48,90,-135,-138,-22,-21
,529,2018/03/15 01:38:54.20,-2770,9729,-12876,-56,79,-50,88,-135,-138,-11,-19
,530,2018/03/15 01:38:54.21,-2780,9727,-12761,-53,82,-52,87,-135,-139,-14,-17
,531,2018/03/15 01:38:54.22,-2768,9789,-12792,-53,84,-45,97,-137,-142,-15,-26
,532,2018/03/15 01:38:54.23,-2700,9804,-12849,-51,86,-46,93,-137,-139,-17,-23
,533,2018/03/15 01:38:54.24,-2717,9834,-12815,-46,90,-42,95,-136,-137,-22,-26
,534,2018/03/15 01:38:54.25,-2719,9788,-12811,-45,86,-36,97,-131,-133,-20,-30
,535,2018/03/15 01:38:54.26,-2702,9840,-12851,-38,91,-35,94,-129,-129,-26,-29
,536,2018/03/15 01:38:54.27,-2743,9871,-12836,-37,91,-31,101,-128,-132,-27,-35
,537,2018/03/15 01:38:54.28,-2658,9863,-12854,-38,92,-32,97,-130,-129,-27,-32
,538,2018/03/15 01:38:54.29,-2809,9897,-12947,-24,108,-31,98,-132,-129,-42,-33
,539,2018/03/15 01:38:54.30,-2722,9944,-12956,-37,94,-30,103,-131,-133,-28,-36
,540,2018/03/15 01:38:54.31,-2791,9968,-12951,-39,97,-41,98,-136,-139,-29,-28
,541,2018/03/15 01:38:54.32,-2804,10006,-12808,-48,87,-38,102,-135,-140,-19,-32
,542,2018/03/15 01:38:54.33,-2776,9905,-12774,-44,90,-49,88,-134,-137,-23,-19
,543,2018/03/15 01:38:54.34,-2697,9771,-12769,-38,93,-40,95,-131,-135,-27,-27
,544,2018/03/15 01:38:54.35,-2761,9734,-12790,-38,93,-42,96,-131,-138,-27,-27
,545,2018/03/15 01:38:54.36,-2747,9701,-12811,-44,89,-42,98,-133,-140,-22,-28
,546,2018/03/15 01:38:54.37,-2707,9683,-12858,-44,89,-39,99,-133,-138,-22,-30
,547,2018/03/15 01:38:54.38,-2708,9698,-12845,-46,90,-40,98,-136,-138,-22,-29
,548,2018/03/15 01:38:54.39,-2677,9698,-12832,-40,95,-45,89,-135,-134,-27,-22
,549,2018/03/15 01:38:54.40,-2642,9637,-12880,-45,83,-42,92,-128,-134,-19,-25
,550,2018/03/15 01:38:54.41,-2715,9723,-12775,-34,95,-47,88,-129,-135,-30,-20
,551,2018/03/15 01:38:54.42,-2732,9730,-12753,-48,85,-49,86,-133,-135,-18,-18
,552,2018/03/15 01:38:54.43,-2683,9748,-12844,-53,81,-51,87,-134,-138,-14,-18
,553,2018/03/15 01:38:54.44,-2686,9733,-12794,-50,84,-52,88,-134,-140,-17,-18
,554,2018/03/15 01:38:54.45,-2694,9763,-12814,-55,82,-49,93,-137,-142,-13,-22
,555,2018/03/15 01:38:54.46,-2754,9718,-12818,-53,86,-52,89,-139,-141,-16,-18
,556,2018/03/15 01:38:54.47,-2671,9740,-12858,-52,86,-47,94,-138,-141,-17,-23
,557,2018/03/15 01:38:54.48,-2777,9785,-12850,-51,84,-46,92,-135,-138,-16,-23
,558,2018/03/15 01:38:54.49,-2713,9717,-12885,-39,94,-40,94,-133,-134,-27,-27
,559,2018/03/15 01:38:54.50,-2676,9715,-12888,-40,87,-32,100,-127,-132,-23,-34
,560,2018/03/15 01:38:54.51,-2662,9713,-12804,-39,91,-37,96,-130,-133,-26,-29
,561,2018/03/15 01:38:54.52,-2762,9811,-12952,-40,92,-36,100,-132,-136,-26,-32
,562,2018/03/15 01:38:54.53,-2702,9776,-12908,-43,89,-36,103,-132,-139,-23,-33
,563,2018/03/15 01:38:54.54,-2725,9780,-12816,-36,98,-34,101,-134,-135,-31,-33
,564,2018/03/15 01:38:54.55,-2689,9782,-12900,-37,95,-31,104,-132,-135,-29,-36
,565,2018/03/15 01:38:54.56,-2707,9763,-12824,-37,95,-36,100,-132,-136,-29,-32
,566,2018/03/15 01:38:54.57,-2744,9799,-12782,-37,100,-32,108,-137,-140,-31,-38
,567,2018/03/15 01:38:54.58,-2800,9794,-12706,-39,101,-31,117,-140,-148,-31,-43
,568,2018/03/15 01:38:54.59,-2772,9786,-12789,-30,120,-29,128,-150,-157,-45,-49
,569,2018/03/15 01:38:54.60,-2752,9796,-12719,-32,130,-23,142,-162,-165,-49,-59
,570,2018/03/15 01:38:54.61,-2754,9776,-12837,-29,131,-27,136,-160,-163,-51,-54
,571,2018/03/15 01:38:54.62,-2709,9823,-12915,-30,129,-29,133,-159,-162,-49,-52
,572,2018/03/15 01:38:54.63,-2671,9808,-12960,-38,119,-30,126,-157,-156,-40,-48
,573,2018/03/15 01:38:54.64,-2719,9789,-12970,-34,121,-34,121,-155,-155,-43,-43
,574,2018/03/15 01:38:54.65,-2695,9786,-12891,-36,114,-30,123,-150,-153,-39,-46
,575,2018/03/15 01:38:54.66,-2683,9848,-12890,-38,110,-33,112,-148,-145,-36,-39
,576,2018/03/15 01:38:54.67,-2736,9807,-12787,-35,111,-34,111,-146,-145,-38,-38
,577,2018/03/15 01:38:54.68,-2719,9828,-12796,-43,103,-38,112,-146,-150,-30,-37
,578,2018/03/15 01:38:54.69,-2661,9820,-12846,-43,105,-43,107,-148,-150,-31,-32
,579,2018/03/15 01:38:54.70,-2762,9807,-12857,-33,109,-33,114,-142,-147,-38,-40
,580,2018/03/15 01:38:54.71,-2795,9788,-12987,-38,108,-28,113,-146,-141,-35,-42
,581,2018/03/15 01:38:54.72,-2695,9787,-12878,-36,109,-37,109,-145,-146,-36,-36
,582,2018/03/15 01:38:54.73,-2662,9752,-12791,-48,89,-37,110,-137,-147,-20,-36
,583,2018/03/15 01:38:54.74,-2691,9732,-12791,-37,104,-49,96,-141,-145,-33,-23
,584,2018/03/15 01:38:54.75,-2730,9764,-12780,-38,101,-36,107,-139,-143,-31,-35
,585,2018/03/15 01:38:54.76,-2766,9683,-12812,-37,101,-40,99,-138,-139,-32,-29
,586,2018/03/15 01:38:54.77,-2832,9709,-12763,-39,94,-37,101,-133,-138,-27,-32
,587,2018/03/15 01:38:54.78,-2823,9681,-12790,-43,84,-40,94,-127,-134,-20,-27
,588,2018/03/15 01:38:54.79,-2762,9761,-12765,-47,82,-45,84,-129,-129,-17,-19
,589,2018/03/15 01:38:54.80,-2757,9682,-12774,-47,78,-47,83,-125,-130,-15,-18
,590,2018/03/15 01:38:54.81,-2754,9720,-12757,-50,74,-50,81,-124,-131,-12,-15
,591,2018/03/15 01:38:54.82,-2781,9708,-12776,-56,72,-57,73,-128,-130,-8,-8
,592,2018/03/15 01:38:54.83,-2794,9753,-12774,-64,61,-54,70,-125,-124,1,-8
,593,2018/03/15 01:38:54.84,-2778,9778,-12718,-65,56,-67,55,-121,-122,4,6
,594,2018/03/15 01:38:54.85,-2711,9768,-12783,-72,47,-75,46,-119,-121,12,14
,595,2018/03/15 01:38:54.86,-2680,9801,-12839,-89,27,-92,31,-116,-123,31,30
,596,2018/03/15 01:38:54.87,-2684,9804,-12910,-106,15,-112,12,-121,-124,45,50
,597,2018/03/15 01:38:54.88,-2663,9847,-12889,-119,-1,-115,12,-118,-127,60,51
,598,2018/03/15 01:38:54.89,-2729,9949,-12871,-114,10,-110,17,-124,-127,52,46
,599,2018/03/15 01:38:54.90,-2681,9910,-12873,-105,21,-94,37,-126,-131,42,28
,600,2018/03/15 01:38:54.91,-2687,9917,-12901,-91,36,-78,56,-127,-134,27,11
,601,2018/03/15 01:38:54.92,-2761,9910,-12851,-72,60,-65,71,-132,-136,6,-3
,602,2018/03/15 01:38:54.93,-2678,9909,-12897,-64,68,-54,84,-132,-138,-2,-15
,603,2018/03/15 01:38:54.94,-2641,9816,-12887,-55,78,-48,88,-133,-136,-11,-20
,604,2018/03/15 01:38:54.95,-2689,9799,-12805,-47,87,-41,98,-134,-139,-20,-28
,605,2018/03/15 01:38:54.96,-2660,9787,-12852,-44,90,-35,102,-134,-137,-23,-33
,606,2018/03/15 01:38:54.97,-2763,9727,-12863,-34,100,-28,108,-134,-136,-33,-40
,607,2018/03/15 01:38:54.98,-2748,9722,-12826,-30,103,-22,116,-133,-138,-36,-47
,608,2018/03/15 01:38:54.99,-2719,9752,-12797,-22,107,-24,112,-129,-136,-42,-44
,609,2018/03/15 01:38:55.00,-2715,9694,-12804,-26,109,-19,118,-135,-137,-41,-49
,610,2018/03/15 01:38:55.01,-2718,9695,-12802,-27,107,-20,118,-134,-138,-40,-49
,611,2018/03/15 01:38:55.02,-2737,9731,-12822,-22,114,-19,118,-136,-137,-46,-49
,612,2018/03/15 01:38:55.03,-2685,9755,-12860,-22,109,-13,119,-131,-132,-43,-53
,613,2018/03/15 01:38:55.04,-2692,9783,-12848,-18,109,-13,115,-127,-128,-45,-51
,614,2018/03/15 01:38:55.05,-2631,9794,-12845,-13,113,-8,119,-126,-127,-50,-55
,615,2018/03/15 01:38:55.06,-2624,9761,-12879,-15,107,-10,114,-122,-124,-46,-52
,616,2018/03/15 01:38:55.07,-2680,9759,-12868,-16,111,-18,112,-127,-130,-47,-47
,617,2018/03/15 01:38:55.08,-2677,9755,-12792,-24,105,-20,116,-129,-136,-40,-48
,618,2018/03/15 01:38:55.09,-2681,9698,-12870,-24,105,-23,108,-129,-131,-40,-42
,619,2018/03/15 01:38:55.10,-2693,9725,-12838,-26,108,-23,112,-134,-135,-41,-44
,620,2018/03/15 01:38:55.11,-2684,9733,-12795,-20,108,-22,111,-128,-133,-44,-44
,621,2018/03/15 01:38:55.12,-2623,9758,-12818,-26,104,-18,113,-130,-131,-39,-47
,622,2018/03/15 01:38:55.13,-2671,9732,-12815,-29,101,-22,110,-130,-132,-36,-44
,623,2018/03/15 01:38:55.14,-2723,9756,-12824,-38,91,-25,106,-129,-131,-26,-40
,624,2018/03/15 01:38:55.15,-2661,9736,-12780,-25,105,-33,100,-130,-133,-40,-33
,625,2018/03/15 01:38:55.16,-2614,9748,-12794,-28,100,-20,108,-128,-128,-36,-44
,626,2018/03/15 01:38:55.17,-2757,9748,-12799,-20,113,-27,105,-133,-132,-46,-39
,627,2018/03/15 01:38:55.18,-2732,9776,-12839,-33,101,-24,116,-134,-140,-34,-46
,628,2018/03/15 01:38:55.19,-2723,9764,-12876,-35,100,-32,103,-135,-135,-32,-35
,629,2018/03/15 01:38:55.20,-2751,9744,-12876,-32,105,-29,106,-137,-135,-36,-38
,630,2018/03/15 01:38:55.21,-2759,9833,-12906,-32,101,-28,106,-133,-134,-34,-39
,631,2018/03/15 01:38:55.22,-2716,9834,-12872,-27,106,-28,106,-133,-134,-39,-39
,632,2018/03/15 01:38:55.23,-2795,9796,-12775,-26,103,-23,110,-129,-133,-38,-43
,633,2018/03/15 01:38:55.24,-2761,9863,-12780,-33,101,-31,100,-134,-131,-34,-34
,634,2018/03/15 01:38:55.25,-2749,9738,-12856,-33,104,-33,107,-137,-140,-35,-37
,635,2018/03/15 01:38:55.26,-2754,9705,-12912,-33,99,-30,109,-132,-139,-33,-39
,636,2018/03/15 01:38:55.27,-2708,9708,-12880,-30,105,-28,107,-135,-135,-37,-39
,637,2018/03/15 01:38:55.28,-2632,9710,-12919,-33,105,-34,106,-138,-140,-36,-36
,638,2018/03/15 01:38:55.29,-2734,9721,-12805,-39,98,-39,99,-137,-138,-29,-30
,639,2018/03/15 01:38:55.30,-2768,9718,-12707,-37,97,-36,99,-134,-135,-30,-31
,640,2018/03/15 01:38:55.31,-2766,9807,-12662,-39,93,-35,102,-132,-137,-27,-33
,641,2018/03/15 01:38:55.32,-2760,9781,-12701,-36,94,-39,95,-130,-134,-29,-28
,642,2018/03/15 01:38:55.33,-2765,9816,-12737,-38,89,-40,94,-127,-134,-25,-27
,643,2018/03/15 01:38:55.34,-2662,9828,-12842,-44,83,-44,90,-127,-134,-19,-23
,644,2018/03/15 01:38:55.35,-2730,9845,-12964,-42,87,-40,91,-129,-131,-22,-25
,645,2018/03/15 01:38:55.36,-2688,9873,-12958,-40,85,-37,96,-125,-133,-22,-29
,646,2018/03/15 01:38:55.37,-2662,9880,-12901,-39,87,-38,90,-126,-128,-24,-26
,647,2018/03/15 01:38:55.38,-2724,9894,-12862,-39,87,-39,95,-126,-134,-24,-28
,648,2018/03/15 01:38:55.39,-2609,9822,-12841,-42,90,-42,93,-132,-135,-24,-25
,649,2018/03/15 01:38:55.40,-2657,9841,-12864,-40,91,-41,94,-131,-135,-25,-26
,650,2018/03/15 01:38:55.41,-2683,9833,-12848,-40,90,-38,100,-130,-138,-25,-31
,651,2018/03/15 01:38:55.42,-2776,9788,-12825,-41,93,-39,97,-134,-136,-26,-29
,652,2018/03/15 01:38:55.43,-2787,9739,-12804,-40,92,-36,98,-132,-134,-26,-31
,653,2018/03/15 01:38:55.44,-2758,9724,-12823,-41,84,-40,94,-125,-134,-21,-27
,654,2018/03/15 01:38:55.45,-2741,9705,-12842,-43,89,-44,93,-132,-137,-23,-24
,655,2018/03/15 01:38:55.46,-2708,9731,-12754,-46,86,-40,95,-132,-135,-20,-27
,656,2018/03/15 01:38:55.47,-2768,9684,-12771,-40,86,-41,91,-126,-132,-23,-25
,657,2018/03/15 01:38:55.48,-2699,9743,-12737,-42,89,-38,97,-131,-135,-23,-29
,658,2018/03/15 01:38:55.49,-2767,9791,-12832,-40,92,-37,96,-132,-133,-26,-29
,659,2018/03/15 01:38:55.50,-2725,9719,-12860,-36,91,-38,94,-127,-132,-27,-28
,660,2018/03/15 01:38:55.51,-2759,9785,-12828,-42,88,-36,100,-130,-136,-23,-32
,661,2018/03/15 01:38:55.52,-2762,9834,-12834,-33,100,-40,96,-133,-136,-33,-28
,662,2018/03/15 01:38:55.53,-2726,9859,-12824,-37,95,-32,106,-132,-138,-29,-37
,663,2018/03/15 01:38:55.54,-2666,9777,-12767,-43,90,-38,98,-133,-136,-23,-30
,664,2018/03/15 01:38:55.55,-2682,9805,-12807,-48,83,-41,94,-131,-135,-17,-26
,665,2018/03/15 01:38:55.56,-2715,9883,-12797,-43,85,-48,88,-128,-136,-21,-20
,666,2018/03/15 01:38:55.57,-2724,9893,-12791,-42,86,-39,91,-128,-130,-22,-26
,667,2018/03/15 01:38:55.58,-2671,9815,-12785,-34,93,-37,92,-127,-129,-29,-27
,668,2018/03/15 01:38:55.59,-2702,9786,-12806,-41,86,-34,98,-127,-132,-22,-32
,669,2018/03/15 01:38:55.60,-2599,9749,-12875,-42,90,-42,94,-132,-136,-24,-26
,670,2018/03/15 01:38:55.61,-2619,9780,-12899,-45,90,-33,102,-135,-135,-22,-34
,671,2018/03/15 01:38:55.62,-2654,9779,-12887,-36,93,-35,95,-129,-130,-28,-30
,672,2018/03/15 01:38:55.63,-2700,9809,-12872,-32,92,-32,96,-124,-128,-30,-32
,673,2018/03/15 01:38:55.64,-2740,9821,-12839,-35,85,-30,94,-120,-124,-25,-32
,674,2018/03/15 01:38:55.65,-2694,9883,-12757,-30,90,-30,94,-120,-124,-30,-32
,675,2018/03/15 01:38:55.66,-2749,9847,-12790,-33,88,-33,98,-121,-131,-27,-32
,676,2018/03/15 01:38:55.67,-2703,9820,-12861,-42,86,-40,91,-128,-131,-22,-25
,677,2018/03/15 01:38:55.68,-2612,9774,-12870,-40,89,-38,94,-129,-132,-24,-28
,678,2018/03/15 01:38:55.69,-2675,9795,-12842,-38,89,-35,96,-127,-131,-25,-30
,679,2018/03/15 01:38:55.70,-2708,9847,-12877,-37,88,-37,89,-125,-126,-25,-26
,680,2018/03/15 01:38:55.71,-2687,9786,-12869,-39,84,-37,93,-123,-130,-22,-28
,681,2018/03/15 01:38:55.72,-2652,9767,-12831,-38,85,-37,94,-123,-131,-23,-28
,682,2018/03/15 01:38:55.73,-2613,9751,-12815,-36,91,-34,94,-127,-128,-27,-30
,683,2018/03/15 01:38:55.74,-2648,9743,-12815,-36,84,-33,93,-120,-126,-24,-30
,684,2018/03/15 01:38:55.75,-2707,9665,-12806,-32,87,-34,91,-119,-125,-27,-28
,685,2018/03/15 01:38:55.76,-2711,9671,-12797,-37,85,-35,92,-122,-127,-24,-28
,686,2018/03/15 01:38:55.77,-2660,9732,-12833,-41,79,-42,84,-120,-126,-19,-21
,687,2018/03/15 01:38:55.78,-2640,9738,-12793,-41,81,-40,86,-122,-126,-20,-23
,688,2018/03/15 01:38:55.79,-2621,9751,-12843,-40,83,-36,90,-123,-126,-21,-27
,689,2018/03/15 01:38:55.80,-2630,9767,-12822,-37,83,-39,85,-120,-124,-23,-23
,690,2018/03/15 01:38:55.81,-2578,9779,-12770,-39,82,-38,91,-121,-129,-21,-26
,691,2018/03/15 01:38:55.82,-2613,9838,-12847,-45,81,-42,87,-126,-129,-18,-22
,692,2018/03/15 01:38:55.83,-2625,9719,-12862,-41,83,-41,87,-124,-128,-21,-23
,693,2018/03/15 01:38:55.84,-2624,9853,-12907,-41,79,-36,91,-120,-127,-19,-27
,694,2018/03/15 01:38:55.85,-2643,9847,-12845,-37,86,-36,91,-123,-127,-24,-27
,695,2018/03/15 01:38:55.86,-2605,9762,-12827,-36,86,-35,94,-122,-129,-25,-29
,696,2018/03/15 01:38:55.87,-2619,9812,-12849,-41,81,-40,87,-122,-127,-20,-23
,697,2018/03/15 01:38:55.88,-2652,9815,-12820,-42,86,-43,89,-128,-132,-22,-23
,698,2018/03/15 01:38:55.89,-2659,9794,-12848,-38,88,-37,96,-126,-133,-25,-29
,699,2018/03/15 01:38:55.90,-2672,9855,-12780,-36,90,-34,93,-126,-127,-27,-29
,700,2018/03/15 01:38:55.91,-2728,9825,-12778,-36,92,-36,97,-128,-133,-28,-30
,701,2018/03/15 01:38:55.92,-2699,9785,-12859,-43,85,-40,93,-128,-133,-21,-26
,702,2018/03/15 01:38:55.93,-2686,9780,-12824,-27,99,-36,95,-126,-131,-36,-29
,703,2018/03/15 01:38:55.94,-2678,9841,-12826,-38,91,-28,103,-129,-131,-26,-37
,704,2018/03/15 01:38:55.95,-2613,9792,-12840,-37,91,-36,95,-128,-131,-27,-29
,705,2018/03/15 01:38:55.96,-2610,9817,-12886,-38,84,-27,100,-122,-127,-23,-36
,706,2018/03/15 01:38:55.97,-2612,9846,-12785,-31,91,-41,86,-122,-127,-30,-22
,707,2018/03/15 01:38:55.98,-2647,9754,-12843,-30,93,-31,97,-123,-128,-31,-33
,708,2018/03/15 01:38:55.99,-2563,9658,-12879,-32,95,-27,100,-127,-127,-31,-36
,709,2018/03/15 01:38:56.00,-2674,9706,-12755,-32,94,-32,102,-126,-134,-31,-35
,710,2018/03/15 01:38:56.01,-2724,9744,-12705,-33,94,-30,102,-127,-132,-30,-36
,711,2018/03/15 01:38:56.02,-2691,9799,-12754,-38,91,-30,102,-129,-132,-26,-36
,712,2018/03/15 01:38:56.03,-2637,9783,-12747,-31,99,-36,96,-130,-132,-34,-30
,713,2018/03/15 01:38:56.04,-2690,9829,-12824,-36,93,-30,105,-129,-135,-28,-37
,714,2018/03/15 01:38:56.05,-2734,9886,-12818,-29,98,-29,101,-127,-130,-34,-36
,715,2018/03/15 01:38:56.06,-2702,9885,-12894,-28,101,-26,108,-129,-134,-36,-41
,716,2018/03/15 01:38:56.07,-2656,9821,-12883,-30,96,-27,103,-126,-130,-33,-38
,717,2018/03/15 01:38:56.08,-2664,9869,-12871,-26,98,-27,97,-124,-124,-36,-35
,718,2018/03/15 01:38:56.09,-2711,9833,-12795,-33,91,-31,96,-124,-127,-29,-32
,719,2018/03/15 01:38:56.10,-2625,9843,-12801,-37,85,-35,92,-122,-127,-24,-28
,720,2018/03/15 01:38:56.11,-2723,9831,-12837,-33,89,-31,96,-122,-127,-28,-32
,721,2018/03/15 01:38:56.12,-2672,9781,-12818,-35,90,-32,95,-125,-127,-27,-31
,722,2018/03/15 01:38:56.13,-2650,9841,-12753,-35,93,-38,92,-128,-130,-29,-27
,723,2018/03/15 01:38:56.14,-2737,9807,-12766,-36,87,-32,95,-123,-127,-25,-31
,724,2018/03/15 01:38:56.15,-2635,9780,-12778,-36,91,-32,94,-127,-126,-27,-31
,725,2018/03/15 01:38:56.16,-2756,9760,-12771,-34,95,-35,95,-129,-130,-30,-30
,726,2018/03/15 01:38:56.17,-2745,9759,-12831,-39,86,-35,93,-125,-128,-23,-29
,727,2018/03/15 01:38:56.18,-2700,9829,-12796,-37,92,-38,90,-129,-128,-27,-26
,728,2018/03/15 01:38:56.19,-2640,9833,-12780,-41,88,-38,93,-129,-131,-23,-27
,729,2018/03/15 01:38:56.20,-2763,9776,-12794,-41,85,-38,88,-126,-126,-22,-25
,730,2018/03/15 01:38:56.21,-2734,9740,-12777,-38,89,-36,93,-127,-129,-25,-28
,731,2018/03/15 01:38:56.22,-2620,9789,-12750,-43,84,-38,91,-127,-129,-20,-26
,732,2018/03/15 01:38:56.23,-2746,9818,-12777,-42,87,-38,90,-129,-128,-22,-26
,733,2018/03/15 01:38:56.24,-2822,9776,-12761,-41,89,-36,97,-130,-133,-24,-30
,734,2018/03/15 01:38:56.25,-2746,9801,-12791,-41,88,-38,90,-129,-128,-23,-26
,735,2018/03/15 01:38:56.26,-2775,9826,-12754,-38,92,-36,93,-130,-129,-27,-28
,736,2018/03/15 01:38:56.27,-2680,9832,-12732,-42,89,-38,96,-131,-134,-23,-29
,737,2018/03/15 01:38:56.28,-2675,9821,-12827,-44,90,-44,89,-134,-133,-23,-22
,738,2018/03/15 01:38:56.29,-2656,9799,-12810,-48,87,-42,94,-135,-136,-19,-26
,739,2018/03/15 01:38:56.30,-2720,9839,-12851,-47,89,-39,98,-136,-137,-21,-29
,740,2018/03/15 01:38:56.31,-2660,9835,-12807,-40,94,-35,96,-134,-131,-27,-30
,741,2018/03/15 01:38:56.32,-2560,9805,-12831,-40,91,-33,101,-131,-134,-25,-34
,742,2018/03/15 01:38:56.33,-2697,9813,-12829,-39,95,-38,99,-134,-137,-28,-30
,743,2018/03/15 01:38:56.34,-2673,9808,-12845,-31,104,-32,100,-135,-132,-36,-34
,744,2018/03/15 01:38:56.35,-2642,9774,-12818,-40,93,-27,104,-133,-131,-26,-38
,745,2018/03/15 01:38:56.36,-2778,9813,-12792,-38,96,-36,99,-134,-135,-29,-31
,746,2018/03/15 01:38:56.37,-2685,9833,-12803,-45,83,-35,102,-128,-137,-19,-33
,747,2018/03/15 01:38:56.38,-2653,9783,-12782,-40,93,-48,87,-133,-135,-26,-19
,748,2018/03/15 01:38:56.39,-2589,9801,-12794,-38,95,-35,104,-133,-139,-28,-34
,749,2018/03/15 01:38:56.40,-2704,9804,-12843,-40,97,-36,101,-137,-137,-28,-32
,750,2018/03/15 01:38:56.41,-2728,9822,-12827,-36,97,-26,108,-133,-134,-30,-41
,751,2018/03/15 01:38:56.42,-2617,9765,-12815,-35,94,-30,104,-129,-134,-29,-37
,752,2018/03/15 01:38:56.43,-2739,9810,-12832,-42,91,-36,98,-133,-134,-24,-31
,753,2018/03/15 01:38:56.44,-2759,9835,-12782,-38,93,-33,100,-131,-133,-27,-33
,754,2018/03/15 01:38:56.45,-2704,9830,-12757,-37,92,-31,102,-129,-133,-27,-35
,755,2018/03/15 01:38:56.46,-2641,9791,-12809,-30,106,-32,100,-136,-132,-38,-34
,756,2018/03/15 01:38:56.47,-2671,9830,-12758,-37,91,-22,108,-128,-130,-27,-43
,757,2018/03/15 01:38:56.48,-2666,9797,-12791,-36,92,-35,97,-128,-132,-28,-31
,758,2018/03/15 01:38:56.49,-2615,9802,-12802,-33,98,-32,102,-131,-134,-32,-35
,759,2018/03/15 01:38:56.50,-2643,9787,-12810,-38,91,-30,100,-129,-130,-26,-35
,760,2018/03/15 01:38:56.51,-2664,9755,-12782,-31,96,-30,99,-127,-129,-32,-34
,761,2018/03/15 01:38:56.52,-2692,9721,-12788,-35,91,-31,102,-126,-133,-28,-35
,762,2018/03/15 01:38:56.53,-2653,9770,-12785,-39,90,-38,96,-129,-134,-25,-29
,763,2018/03/15 01:38:56.54,-2697,9769,-12834,-44,90,-44,94,-134,-138,-23,-25
,764,2018/03/15 01:38:56.55,-2642,9773,-12812,-53,76,-50,80,-129,-130,-11,-15
,765,2018/03/15 01:38:56.56,-2665,9830,-12780,-52,71,-52,69,-123,-121,-9,-8
,766,2018/03/15 01:38:56.57,-2646,9780,-12811,-61,54,-60,56,-115,-116,3,2
,767,2018/03/15 01:38:56.58,-2704,9866,-12799,-73,39,-77,39,-112,-116,17,19
,768,2018/03/15 01:38:56.59,-2687,9836,-12837,-82,33,-88,31,-115,-119,24,28
,769,2018/03/15 01:38:56.60,-2720,9813,-12744,-98,16,-96,22,-114,-118,41,37
,770,2018/03/15 01:38:56.61,-2683,9848,-12792,-101,16,-102,20,-117,-122,42,41
,771,2018/03/15 01:38:56.62,-2683,9814,-12826,-104,16,-96,31,-120,-127,44,32
,772,2018/03/15 01:38:56.63,-2679,9852,-12824,-96,27,-89,41,-123,-130,34,24
,773,2018/03/15 01:38:56.64,-2656,9880,-12807,-84,45,-74,57,-129,-131,19,8
,774,2018/03/15 01:38:56.65,-2702,9802,-12834,-72,53,-62,67,-125,-129,9,-2
,775,2018/03/15 01:38:56.66,-2755,9807,-12747,-58,65,-54,73,-123,-127,-3,-9
,776,2018/03/15 01:38:56.67,-2751,9816,-12853,-53,70,-44,86,-123,-130,-8,-21
,777,2018/03/15 01:38:56.68,-2635,9754,-12850,-45,80,-39,90,-125,-129,-17,-25
,778,2018/03/15 01:38:56.69,-2697,9791,-12761,-32,96,-30,101,-128,-131,-32,-35
,779,2018/03/15 01:38:56.70,-2678,9862,-12713,-34,94,-27,106,-128,-133,-30,-39
,780,2018/03/15 01:38:56.71,-2760,9842,-12727,-27,102,-24,107,-129,-131,-37,-41
,781,2018/03/15 01:38:56.72,-2686,9879,-12760,-19,105,-15,118,-124,-133,-43,-51
,782,2018/03/15 01:38:56.73,-2694,9888,-12799,-20,108,-15,115,-128,-130,-44,-50
,783,2018/03/15 01:38:56.74,-2673,9943,-12842,-13,112,-12,117,-125,-129,-49,-52
,784,2018/03/15 01:38:56.75,-2739,9902,-12877,-3,119,-10,122,-122,-132,-58,-56
,785,2018/03/15 01:38:56.76,-2609,9807,-12854,-14,115,-5,125,-129,-130,-50,-60
,786,2018/03/15 01:38:56.77,-2673,9859,-12844,-14,111,-11,120,-125,-131,-48,-54
,787,2018/03/15 01:38:56.78,-2642,9853,-12849,-17,103,-15,115,-120,-130,-43,-50
,788,2018/03/15 01:38:56.79,-2609,9819,-12774,-13,116,-25,103,-129,-128,-51,-39
,789,2018/03/15 01:38:56.80,-2738,9818,-12809,-17,106,-14,115,-123,-129,-44,-50
,790,2018/03/15 01:38:56.81,-2676,9795,-12805,-14,114,-20,112,-128,-132,-50,-46
,791,2018/03/15 01:38:56.82,-2665,9784,-12855,-20,108,-15,121,-128,-136,-44,-53
,792,2018/03/15 01:38:56.83,-2628,9752,-12860,-22,107,-19,113,-129,-132,-42,-47
,793,2018/03/15 01:38:56.84,-2742,9701,-12820,-26,107,-21,113,-133,-134,-40,-46
,794,2018/03/15 01:38:56.85,-2681,9735,-12812,-22,104,-21,111,-126,-132,-41,-45
,795,2018/03/15 01:38:56.86,-2678,9760,-12742,-20,111,-19,112,-131,-131,-45,-46
,796,2018/03/15 01:38:56.87,-2688,9721,-12778,-18,114,-17,117,-132,-134,-48,-50
,797,2018/03/15 01:38:56.88,-2758,9711,-12801,-25,107,-22,109,-132,-131,-41,-43
,798,2018/03/15 01:38:56.89,-2681,9709,-12798,-23,115,-26,111,-138,-137,-46,-42
,799,2018/03/15 01:38:56.90,-2694,9684,-12834,-34,103,-28,113,-137,-141,-34,-42
,800,2018/03/15 01:38:56.91,-2638,9713,-12842,-34,104,-33,104,-138,-137,-35,-35
,801,2018/03/15 01:38:56.92,-2691,9754,-12835,-33,105,-30,110,-138,-140,-36,-40
,802,2018/03/15 01:38:56.93,-2634,9792,-12820,-36,103,-30,111,-139,-141,-33,-40
,803,2018/03/15 01:38:56.94,-2684,9768,-12802,-33,108,-27,113,-141,-140,-37,-43
,804,2018/03/15 01:38:56.95,-2700,9747,-12819,-33,108,-25,118,-141,-143,-37,-46
,805,2018/03/15 01:38:56.96,-2650,9824,-12860,-33,106,-31,109,-139,-140,-36,-39
,806,2018/03/15 01:38:56.97,-2607,9774,-12884,-33,103,-27,107,-136,-134,-35,-40
,807,2018/03/15 01:38:56.98,-2739,9752,-12874,-32,102,-26,110,-134,-136,-35,-42
,808,2018/03/15 01:38:56.99,-2625,9776,-12893,-24,107,-25,110,-131,-135,-41,-42
,809,2018/03/15 01:38:57.00,-2667,9756,-12865,-30,101,-22,110,-131,-132,-35,-44
,810,2018/03/15 01:38:57.01,-2641,9781,-12884,-29,102,-28,104,-131,-132,-36,-38
,811,2018/03/15 01:38:57.02,-2592,9759,-12864,-31,99,-29,104,-130,-133,-34,-37
,812,2018/03/15 01:38:57.03,-2653,9754,-12845,-38,91,-34,100,-129,-134,-26,-33
,813,2018/03/15 01:38:57.04,-2611,9763,-12897,-37,98,-35,102,-135,-137,-30,-33
,814,2018/03/15 01:38:57.05,-2664,9763,-12854,-37,98,-29,112,-135,-141,-30,-41
,815,2018/03/15 01:38:57.06,-2637,9714,-12873,-34,104,-32,108,-138,-140,-35,-38
,816,2018/03/15 01:38:57.07,-2717,9750,-12822,-33,105,-29,112,-138,-141,-36,-41
,817,2018/03/15 01:38:57.08,-2704,9785,-12846,-36,100,-28,110,-136,-138,-32,-41
,818,2018/03/15 01:38:57.09,-2607,9777,-12849,-29,104,-32,106,-133,-138,-37,-37
,819,2018/03/15 01:38:57.10,-2694,9790,-12828,-37,95,-34,103,-132,-137,-29,-34
,820,2018/03/15 01:38:57.11,-2724,9758,-12791,-40,92,-36,98,-132,-134,-26,-31
,821,2018/03/15 01:38:57.12,-2684,9759,-12800,-36,98,-33,104,-134,-137,-31,-35
,822,2018/03/15 01:38:57.13,-2648,9721,-12791,-37,96,-30,107,-133,-137,-29,-38
,823,2018/03/15 01:38:57.14,-2683,9702,-12828,-32,101,-32,103,-133,-135,-34,-35
,824,2018/03/15 01:38:57.15,-2694,9777,-12841,-36,95,-31,106,-131,-137,-29,-37
,825,2018/03/15 01:38:57.16,-2614,9740,-12793,-31,103,-35,102,-134,-137,-36,-33
,826,2018/03/15 01:38:57.17,-2597,9688,-12844,-37,99,-25,115,-136,-140,-31,-45
,827,2018/03/15 01:38:57.18,-2667,9758,-12811,-40,94,-35,103,-134,-138,-27,-34
,828,2018/03/15 01:38:57.19,-2645,9715,-12808,-23,107,-33,99,-130,-132,-42,-33
,829,2018/03/15 01:38:57.20,-2588,9687,-12834,-37,92,-41,86,-129,-127,-27,-22
,830,2018/03/15 01:38:57.21,-2595,9715,-12837,-38,88,-34,95,-126,-129,-25,-30
,831,2018/03/15 01:38:57.22,-2733,9734,-12856,-30,98,-30,104,-128,-134,-34,-37
,832,2018/03/15 01:38:57.23,-2709,9733,-12861,-36,94,-28,108,-130,-136,-29,-40
,833,2018/03/15 01:38:57.24,-2599,9751,-12848,-31,96,-30,98,-127,-128,-32,-34
,834,2018/03/15 01:38:57.25,-2674,9763,-12802,-36,84,-28,99,-120,-127,-24,-35
,835,2018/03/15 01:38:57.26,-2591,9849,-12827,-34,87,-33,89,-121,-122,-26,-28
,836,2018/03/15 01:38:57.27,-2658,9844,-12846,-33,84,-33,86,-117,-119,-25,-26
,837,2018/03/15 01:38:57.28,-2692,9876,-12883,-34,81,-34,88,-115,-122,-23,-27
,838,2018/03/15 01:38:57.29,-2660,9896,-12851,-33,88,-34,93,-121,-127,-27,-29
,839,2018/03/15 01:38:57.30,-2687,9855,-12874,-37,92,-34,105,-129,-139,-27,-35
,840,2018/03/15 01:38:57.31,-2629,9834,-12839,-44,95,-42,102,-139,-144,-25,-30
,841,2018/03/15 01:38:57.32,-2689,9850,-12835,-46,98,-46,100,-144,-146,-26,-27
,842,2018/03/15 01:38:57.33,-2722,9861,-12793,-52,90,-47,100,-142,-147,-19,-26
,843,2018/03/15 01:38:57.34,-2678,9848,-12820,-52,92,-52,95,-144,-147,-20,-21
,844,2018/03/15 01:38:57.35,-2652,9811,-12795,-56,89,-54,97,-145,-151,-16,-21
,845,2018/03/15 01:38:57.36,-2666,9790,-12811,-62,85,-60,90,-147,-150,-11,-15
,846,2018/03/15 01:38:57.37,-2760,9772,-12925,-62,85,-60,89,-147,-149,-11,-14
,847,2018/03/15 01:38:57.38,-2856,9717,-12846,-66,79,-59,90,-145,-149,-6,-15
,848,2018/03/15 01:38:57.39,-2733,9671,-12829,-61,84,-61,85,-145,-146,-11,-12
,849,2018/03/15 01:38:57.40,-2716,9704,-12841,-62,81,-56,90,-143,-146,-9,-17
,850,2018/03/15 01:38:57.41,-2698,9696,-12746,-63,80,-59,89,-143,-148,-8,-15
,851,2018/03/15 01:38:57.42,-2784,9755,-12714,-60,87,-58,91,-147,-149,-13,-16
,852,2018/03/15 01:38:57.43,-2745,9791,-12743,-62,82,-58,92,-144,-150,-10,-17
,853,2018/03/15 01:38:57.44,-2657,9823,-12778,-63,83,-64,86,-146,-150,-10,-11
,854,2018/03/15 01:38:57.45,-2696,9849,-12766,-65,80,-60,89,-145,-149,-7,-14
,855,2018/03/15 01:38:57.46,-2639,9877,-12898,-65,78,-61,84,-143,-145,-6,-11
,856,2018/03/15 01:38:57.47,-2751,9857,-12919,-65,78,-66,79,-143,-145,-6,-6
,857,2018/03/15 01:38:57.48,-2679,9873,-12941,-71,71,-61,87,-142,-148,0,-13
,858,2018/03/15 01:38:57.49,-2648,9875,-12912,-64,80,-64,85,-144,-149,-8,-10
,859,2018/03/15 01:38:57.50,-2603,9797,-12872,-63,84,-57,92,-147,-149,-10,-17
,860,2018/03/15 01:38:57.51,-2646,9796,-12862,-62,81,-56,88,-143,-144,-9,-16
,861,2018/03/15 01:38:57.52,-2600,9767,-12914,-56,84,-54,87,-140,-141,-14,-16
,862,2018/03/15 01:38:57.53,-2722,9763,-12925,-56,80,-49,90,-136,-139,-12,-20
,863,2018/03/15 01:38:57.54,-2630,9759,-12887,-54,82,-53,87,-136,-140,-14,-17
,864,2018/03/15 01:38:57.55,-2629,9711,-12850,-54,84,-49,94,-138,-143,-15,-22
,865,2018/03/15 01:38:57.56,-2683,9683,-12867,-54,86,-50,96,-140,-146,-16,-23
,866,2018/03/15 01:38:57.57,-2641,9687,-12864,-44,100,-54,90,-144,-144,-28,-18
,867,2018/03/15 01:38:57.58,-2617,9721,-12824,-59,81,-47,100,-140,-147,-11,-26
,868,2018/03/15 01:38:57.59,-2641,9680,-12839,-59,82,-60,84,-141,-144,-11,-12
,869,2018/03/15 01:38:57.60,-2658,9728,-12828,-65,74,-58,88,-139,-146,-4,-15
,870,2018/03/15 01:38:57.61,-2588,9717,-12824,-64,80,-66,79,-144,-145,-8,-6
,871,2018/03/15 01:38:57.62,-2600,9655,-12826,-60,86,-58,89,-146,-147,-13,-15
,872,2018/03/15 01:38:57.63,-2703,9659,-12837,-58,84,-53,91,-142,-144,-13,-19
,873,2018/03/15 01:38:57.64,-2689,9709,-12809,-56,81,-58,81,-137,-139,-12,-11
,874,2018/03/15 01:38:57.65,-2650,9710,-12806,-53,83,-51,88,-136,-139,-15,-18
,875,2018/03/15 01:38:57.66,-2745,9663,-12787,-63,69,-51,85,-132,-136,-3,-17
,876,2018/03/15 01:38:57.67,-2714,9717,-12817,-54,79,-63,74,-133,-137,-12,-5
,877,2018/03/15 01:38:57.68,-2743,9713,-12773,-57,75,-52,85,-132,-137,-9,-16
,878,2018/03/15 01:38:57.69,-2720,9753,-12819,-61,70,-55,78,-131,-133,-4,-11
,879,2018/03/15 01:38:57.70,-2657,9748,-12828,-56,73,-52,77,-129,-129,-8,-12
,880,2018/03/15 01:38:57.71,-2697,9763,-12884,-57,68,-51,78,-125,-129,-5,-13
,881,2018/03/15 01:38:57.72,-2650,9786,-12954,-55,71,-53,75,-126,-128,-8,-11
,882,2018/03/15 01:38:57.73,-2682,9801,-12892,-56,70,-53,77,-126,-130,-7,-12
,883,2018/03/15 01:38:57.74,-2635,9829,-12915,-59,68,-57,75,-127,-132,-4,-9
,884,2018/03/15 01:38:57.75,-2652,9753,-12871,-57,74,-53,82,-131,-135,-8,-14
,885,2018/03/15 01:38:57.76,-2643,9756,-12921,-58,73,-50,85,-131,-135,-7,-17
,886,2018/03/15 01:38:57.77,-2660,9795,-12914,-50,80,-50,83,-130,-133,-15,-16
,887,2018/03/15 01:38:57.78,-2675,9801,-12891,-51,79,-48,84,-130,-132,-14,-18
,888,2018/03/15 01:38:57.79,-2640,9857,-12843,-52,74,-50,77,-126,-127,-11,-13
,889,2018/03/15 01:38:57.80,-2612,9816,-12896,-49,74,-44,81,-123,-125,-12,-18
,890,2018/03/15 01:38:57.81,-2709,9809,-12829,-51,69,-47,80,-120,-127,-9,-16
,891,2018/03/15 01:38:57.82,-2677,9834,-12867,-53,72,-54,74,-125,-128,-9,-10
,892,2018/03/15 01:38:57.83,-2705,9811,-12842,-56,69,-50,78,-125,-128,-6,-14
,893,2018/03/15 01:38:57.84,-2769,9762,-12806,-50,72,-46,78,-122,-124,-11,-16
,894,2018/03/15 01:38:57.85,-2649,9753,-12854,-47,76,-48,79,-123,-127,-14,-15
,895,2018/03/15 01:38:57.86,-2643,9750,-12778,-55,70,-52,78,-125,-130,-7,-13
,896,2018/03/15 01:38:57.87,-2711,9752,-12817,-56,70,-57,69,-126,-126,-7,-6
,897,2018/03/15 01:38:57.88,-2731,9754,-12851,-58,64,-53,70,-122,-123,-3,-8
,898,2018/03/15 01:38:57.89,-2714,9766,-12799,-56,63,-57,63,-119,-120,-3,-3
,899,2018/03/15 01:38:57.90,-2690,9752,-12809,-58,59,-60,59,-117,-119,0,0
,900,2018/03/15 01:38:57.91,-2686,9742,-12818,-65,51,-59,60,-116,-119,7,0
,901,2018/03/15 01:38:57.92,-2663,9775,-12805,-58,55,-53,61,-113,-114,1,-4
,902,2018/03/15 01:38:57.93,-2706,9784,-12801,-52,59,-45,68,-111,-113,-3,-11
,903,2018/03/15 01:38:57.94,-2710,9768,-12833,-52,56,-48,64,-108,-112,-2,-8
,904,2018/03/15 01:38:57.95,-2698,9756,-12844,-50,61,-50,64,-111,-114,-5,-7
,905,2018/03/15 01:38:57.96,-2678,9727,-12783,-52,59,-46,70,-111,-116,-3,-12
,906,2018/03/15 01:38:57.97,-2614,9757,-12819,-47,66,-46,71,-113,-117,-9,-12
,907,2018/03/15 01:38:57.98,-2603,9774,-12850,-36,82,-41,79,-118,-120,-23,-19
,908,2018/03/15 01:38:57.99,-2634,9764,-12855,-43,72,-30,88,-115,-118,-14,-29
,909,2018/03/15 01:38:58.00,-2692,9776,-12873,-41,71,-40,73,-112,-113,-15,-16
,910,2018/03/15 01:38:58.01,-2678,9768,-12895,-46,59,-40,74,-105,-114,-6,-17
,911,2018/03/15 01:38:58.02,-2620,9784,-12907,-46,64,-50,58,-110,-108,-9,-4
,912,2018/03/15 01:38:58.03,-2711,9773,-12896,-44,66,-39,73,-110,-112,-11,-17
,913,2018/03/15 01:38:58.04,-2709,9706,-12863,-43,65,-40,69,-108,-109,-11,-14
,914,2018/03/15 01:38:58.05,-2690,9721,-12880,-40,65,-36,71,-105,-107,-12,-17
,915,2018/03/15 01:38:58.06,-2707,9774,-12796,-39,63,-34,74,-102,-108,-12,-20
,916,2018/03/15 01:38:58.07,-2726,9735,-12821,-44,62,-36,74,-106,-110,-9,-19
,917,2018/03/15 01:38:58.08,-2656,9733,-12885,-36,74,-40,74,-110,-114,-19,-17
,918,2018/03/15 01:38:58.09,-2679,9749,-12909,-31,79,-26,89,-110,-115,-24,-31
,919,2018/03/15 01:38:58.10,-2637,9716,-12912,-23,90,-25,90,-113,-115,-33,-32
,920,2018/03/15 01:38:58.11,-2699,9679,-12923,-29,83,-23,92,-112,-115,-27,-34
,921,2018/03/15 01:38:58.12,-2644,9659,-12835,-32,81,-31,84,-113,-115,-24,-26
,922,2018/03/15 01:38:58.13,-2711,9692,-12738,-33,81,-28,89,-114,-117,-24,-30
,923,2018/03/15 01:38:58.14,-2692,9727,-12756,-35,78,-30,88,-113,-118,-21,-29
,924,2018/03/15 01:38:58.15,-2654,9748,-12740,-32,84,-31,87,-116,-118,-26,-28
,925,2018/03/15 01:38:58.16,-2679,9760,-12772,-35,80,-28,90,-115,-118,-22,-31
,926,2018/03/15 01:38:58.17,-2626,9714,-12900,-34,79,-32,81,-113,-113,-22,-24
,927,2018/03/15 01:38:58.18,-2614,9835,-12887,-31,76,-26,82,-107,-108,-22,-28
,928,2018/03/15 01:38:58.19,-2609,9845,-12901,-28,75,-24,83,-103,-107,-23,-29
,929,2018/03/15 01:38:58.20,-2575,9786,-12989,-25,81,-24,86,-106,-110,-28,-31
,930,2018/03/15 01:38:58.21,-2683,9857,-12875,-29,80,-25,89,-109,-114,-25,-32
,931,2018/03/15 01:38:58.22,-2656,9844,-12885,-33,78,-30,84,-111,-114,-22,-27
,932,2018/03/15 01:38:58.23,-2635,9883,-12923,-29,82,-23,87,-111,-110,-26,-32
,933,2018/03/15 01:38:58.24,-2682,9789,-12871,-27,79,-18,91,-106,-109,-26,-36
,934,2018/03/15 01:38:58.25,-2644,9805,-12895,-20,87,-20,91,-107,-111,-33,-35
,935,2018/03/15 01:38:58.26,-2659,9819,-12897,-24,86,-22,94,-110,-116,-31,-36
,936,2018/03/15 01:38:58.27,-2736,9787,-12917,-30,82,-26,88,-112,-114,-26,-31
,937,2018/03/15 01:38:58.28,-2665,9741,-12866,-24,86,-19,93,-110,-112,-31,-37
,938,2018/03/15 01:38:58.29,-2676,9750,-12838,-20,88,-14,97,-108,-111,-34,-41
,939,2018/03/15 01:38:58.30,-2622,9721,-12850,-18,91,-19,93,-109,-112,-36,-37
,940,2018/03/15 01:38:58.31,-2780,9758,-12841,-23,87,-18,96,-110,-114,-32,-39
,941,2018/03/15 01:38:58.32,-2670,9743,-12793,-24,84,-23,88,-108,-111,-30,-32
,942,2018/03/15 01:38:58.33,-2675,9762,-12774,-25,83,-24,86,-108,-110,-29,-31
,943,2018/03/15 01:38:58.34,-2718,9714,-12840,-31,75,-25,84,-106,-109,-22,-29
,944,2018/03/15 01:38:58.35,-2767,9736,-12816,-29,77,-28,81,-106,-109,-24,-26
,945,2018/03/15 01:38:58.36,-2755,9783,-12805,-30,77,-26,85,-107,-111,-23,-29
,946,2018/03/15 01:38:58.37,-2773,9729,-12776,-32,73,-27,79,-105,-106,-20,-26
,947,2018/03/15 01:38:58.38,-2655,9718,-12791,-27,76,-23,80,-103,-103,-24,-28
,948,2018/03/15 01:38:58.39,-2654,9696,-12758,-29,76,-21,83,-105,-104,-23,-31
,949,2018/03/15 01:38:58.40,-2733,9733,-12860,-27,76,-20,88,-103,-108,-24,-34
,950,2018/03/15 01:38:58.41,-2657,9728,-12914,-31,76,-27,85,-107,-112,-22,-29
,951,2018/03/15 01:38:58.42,-2706,9698,-12860,-29,74,-26,85,-103,-111,-22,-29
,952,2018/03/15 01:38:58.43,-2608,9729,-12923,-24,84,-23,80,-108,-103,-30,-28
,953,2018/03/15 01:38:58.44,-2647,9804,-12924,-23,81,-17,90,-104,-107,-29,-36
,954,2018/03/15 01:38:58.45,-2681,9711,-12880,-22,84,-23,85,-106,-108,-31,-31
,955,2018/03/15 01:38:58.46,-2670,9764,-12985,-26,82,-19,94,-108,-113,-28,-37
,956,2018/03/15 01:38:58.47,-2648,9796,-12864,-26,85,-22,92,-111,-114,-29,-35
,957,2018/03/15 01:38:58.48,-2718,9772,-12892,-30,82,-21,92,-112,-113,-26,-35
,958,2018/03/15 01:38:58.49,-2687,9791,-12893,-23,87,-30,83,-110,-113,-32,-26
,959,2018/03/15 01:38:58.50,-2658,9763,-12893,-26,83,-25,86,-109,-111,-28,-30
,960,2018/03/15 01:38:58.51,-2704,9747,-12820,-25,84,-24,87,-109,-111,-29,-31
,961,2018/03/15 01:38:58.52,-2641,9763,-12891,-30,76,-23,85,-106,-108,-23,-31
,962,2018/03/15 01:38:58.53,-2771,9786,-12856,-26,82,-23,86,-108,-109,-28,-31
,963,2018/03/15 01:38:58.54,-2695,9769,-12805,-28,79,-20,91,-107,-111,-25,-35
,964,2018/03/15 01:38:58.55,-2797,9782,-12837,-26,80,-24,83,-106,-107,-27,-29
,965,2018/03/15 01:38:58.56,-2706,9759,-12898,-24,80,-19,89,-104,-108,-28,-35
,966,2018/03/15 01:38:58.57,-2743,9844,-12890,-24,80,-19,89,-104,-108,-28,-35
,967,2018/03/15 01:38:58.58,-2731,9813,-12877,-21,85,-20,89,-106,-109,-32,-34
,968,2018/03/15 01:38:58.59,-2736,9773,-12888,-19,85,-16,92,-104,-108,-33,-38
,969,2018/03/15 01:38:58.60,-2648,9813,-12825,-21,82,-20,85,-103,-105,-30,-32
,970,2018/03/15 01:38:58.61,-2688,9769,-12866,-23,82,-20,91,-105,-111,-29,-35
,971,2018/03/15 01:38:58.62,-2691,9751,-12912,-28,80,-24,89,-108,-113,-26,-32
,972,2018/03/15 01:38:58.63,-2634,9747,-12871,-26,88,-26,91,-114,-117,-31,-32
,973,2018/03/15 01:38:58.64,-2662,9765,-12786,-28,87,-22,96,-115,-118,-29,-37
,974,2018/03/15 01:38:58.65,-2716,9677,-12870,-27,89,-24,95,-116,-119,-31,-35
,975,2018/03/15 01:38:58.66,-2667,9642,-12840,-26,90,-22,97,-116,-119,-32,-37
,976,2018/03/15 01:38:58.67,-2622,9583,-12879,-28,86,-20,96,-114,-116,-29,-38
,977,2018/03/15 01:38:58.68,-2612,9622,-12860,-21,92,-20,93,-113,-113,-35,-36
,978,2018/03/15 01:38:58.69,-2686,9651,-12930,-21,90,-20,96,-111,-116,-34,-38
,979,2018/03/15 01:38:58.70,-2674,9704,-12912,-27,88,-26,93,-115,-119,-30,-33
,980,2018/03/15 01:38:58.71,-2720,9794,-12894,-26,92,-22,98,-118,-120,-33,-38
,981,2018/03/15 01:38:58.72,-2657,9784,-12848,-25,90,-19,99,-115,-118,-32,-40
,982,2018/03/15 01:38:58.73,-2671,9834,-12854,-20,94,-21,94,-114,-115,-37,-36
,983,2018/03/15 01:38:58.74,-2684,9807,-12841,-24,87,-19,96,-111,-115,-31,-38
,984,2018/03/15 01:38:58.75,-2614,9714,-12895,-24,89,-21,93,-113,-114,-32,-36
,985,2018/03/15 01:38:58.76,-2724,9759,-12900,-20,92,-17,98,-112,-115,-36,-40
,986,2018/03/15 01:38:58.77,-2761,9731,-12927,-21,91,-15,101,-112,-116,-35,-43
,987,2018/03/15 01:38:58.78,-2661,9722,-12923,-17,97,-16,99,-114,-115,-40,-41
,988,2018/03/15 01:38:58.79,-2629,9647,-12844,-17,94,-13,102,-111,-115,-38,-44
,989,2018/03/15 01:38:58.80,-2656,9626,-12915,-13,102,-18,98,-115,-116,-44,-40
,990,2018/03/15 01:38:58.81,-2682,9741,-12850,-18,99,-8,114,-117,-122,-40,-53
,991,2018/03/15 01:38:58.82,-2701,9712,-12902,-19,99,-11,110,-118,-121,-40,-49
,992,2018/03/15 01:38:58.83,-2694,9696,-12979,-7,106,-11,106,-113,-117,-49,-47
,993,2018/03/15 01:38:58.84,-2604,9634,-12928,-14,99,-17,95,-113,-112,-42,-39
,994,2018/03/15 01:38:58.85,-2654,9678,-12920,-18,94,-17,99,-112,-116,-38,-41
,995,2018/03/15 01:38:58.86,-2579,9668,-12895,-19,95,-19,97,-114,-116,-38,-39
,996,2018/03/15 01:38:58.87,-2633,9668,-12806,-26,86,-26,90,-112,-116,-30,-32
,997,2018/03/15 01:38:58.88,-2674,9724,-12746,-22,90,-22,90,-112,-112,-34,-34
,998,2018/03/15 01:38:58.89,-2687,9762,-12764,-19,89,-19,92,-108,-111,-35,-36
,999,2018/03/15 01:38:58.90,-2683,9721,-12779,-27,81,-23,88,-108,-111,-27,-32
,1000,2018/03/15 01:38:58.91,-2614,9695,-12777,-26,86,-24,93,-112,-117,-30,-34
,1001,2018/03/15 01:38:58.92,-2640,9678,-12877,-26,87,-20,96,-113,-116,-30,-38
,1002,2018/03/15 01:38:58.93,-2713,9739,-12938,-22,89,-21,92,-111,-113,-33,-35
,1003,2018/03/15 01:38:58.94,-2672,9722,-12984,-21,84,-17,90,-105,-107,-31,-36
,1004,2018/03/15 01:38:58.95,-2686,9778,-12963,-27,76,-27,81,-103,-108,-24,-27
,1005,2018/03/15 01:38:58.96,-2675,9722,-12917,-34,73,-39,73,-107,-112,-19,-17
,1006,2018/03/15 01:38:58.97,-2635,9759,-12901,-48,58,-45,64,-106,-109,-5,-9
,1007,2018/03/15 01:38:58.98,-2721,9778,-12877,-54,52,-56,53,-106,-109,1,1
,1008,2018/03/15 01:38:58.99,-2690,9792,-12937,-58,49,-60,51,-107,-111,4,4
,1009,2018/03/15 01:38:59.00,-2686,9761,-12907,-74,35,-78,36,-109,-114,19,21
,1010,2018/03/15 01:38:59.01,-2702,9793,-12889,-85,25,-88,24,-110,-112,30,32
,1011,2018/03/15 01:38:59.02,-2663,9715,-12889,-93,13,-87,20,-106,-107,40,33
,1012,2018/03/15 01:38:59.03,-2650,9732,-12884,-92,11,-88,18,-103,-106,40,35
,1013,2018/03/15 01:38:59.04,-2732,9700,-12879,-88,17,-81,28,-105,-109,35,26
,1014,2018/03/15 01:38:59.05,-2688,9689,-12841,-83,23,-72,37,-106,-109,30,17
,1015,2018/03/15 01:38:59.06,-2667,9619,-12825,-66,42,-57,52,-108,-109,12,2
,1016,2018/03/15 01:38:59.07,-2730,9729,-12801,-53,53,-36,75,-106,-111,0,-19
,1017,2018/03/15 01:38:59.08,-2751,9693,-12862,-37,72,-30,82,-109,-112,-17,-26
,1018,2018/03/15 01:38:59.09,-2628,9650,-12903,-26,87,-24,96,-113,-120,-30,-36
,1019,2018/03/15 01:38:59.10,-2691,9738,-12804,-27,87,-20,98,-114,-118,-30,-39
,1020,2018/03/15 01:38:59.11,-2700,9743,-12851,-18,95,-12,100,-113,-112,-38,-44
,1021,2018/03/15 01:38:59.12,-2774,9671,-12815,-13,96,-4,109,-109,-113,-41,-52
,1022,2018/03/15 01:38:59.13,-2743,9623,-12836,-6,101,-1,108,-107,-109,-47,-53
,1023,2018/03/15 01:38:59.14,-2769,9705,-12847,-1,106,5,114,-107,-109,-52,-59
,1024,2018/03/15 01:38:59.15,-2683,9704,-12876,-1,104,4,113,-105,-109,-51,-58
,1025,2018/03/15 01:38:59.16,-2714,9703,-12902,0,108,-1,111,-108,-112,-54,-55
,1026,2018/03/15 01:38:59.17,-2737,9671,-12923,-6,104,0,115,-110,-115,-49,-57
,1027,2018/03/15 01:38:59.18,-2640,9654,-12919,-4,107,-1,113,-111,-114,-51,-56
,1028,2018/03/15 01:38:59.19,-2586,9688,-12930,0,112,2,116,-112,-114,-56,-59
,1029,2018/03/15 01:38:59.20,-2647,9675,-12948,-4,106,3,117,-110,-114,-51,-60
,1030,2018/03/15 01:38:59.21,-2655,9638,-12938,5,122,1,116,-117,-115,-63,-58
,1031,2018/03/15 01:38:59.22,-2615,9665,-12914,-5,107,8,125,-112,-117,-51,-66
,1032,2018/03/15 01:38:59.23,-2525,9662,-12895,-7,102,-6,105,-109,-111,-47,-49
,1033,2018/03/15 01:38:59.24,-2670,9687,-12910,-1,105,-3,108,-106,-111,-52,-52
,1034,2018/03/15 01:38:59.25,-2618,9646,-12954,-6,100,-4,101,-106,-105,-47,-48
,1035,2018/03/15 01:38:59.26,-2689,9688,-12868,-3,107,-2,109,-110,-111,-52,-53
,1036,2018/03/15 01:38:59.27,-2668,9692,-12916,-5,105,-1,112,-110,-113,-50,-55
,1037,2018/03/15 01:38:59.28,-2715,9691,-12923,-7,101,-11,100,-108,-111,-47,-44
,1038,2018/03/15 01:38:59.29,-2659,9677,-12913,-3,106,-1,108,-109,-109,-51,-53
,1039,2018/03/15 01:38:59.30,-2615,9650,-12882,-12,92,0,109,-104,-109,-40,-54
,1040,2018/03/15 01:38:59.31,-2597,9674,-12845,-4,104,-2,107,-108,-109,-50,-52
,1041,2018/03/15 01:38:59.32,-2662,9721,-12871,-5,101,1,109,-106,-108,-48,-55
,1042,2018/03/15 01:38:59.33,-2712,9650,-12907,-3,100,-3,101,-103,-104,-48,-49
,1043,2018/03/15 01:38:59.34,-2675,9729,-12898,-6,97,-3,101,-103,-104,-45,-49
,1044,2018/03/15 01:38:59.35,-2613,9723,-12921,-11,90,-5,101,-101,-106,-39,-48
,1045,2018/03/15 01:38:59.36,-2564,9717,-12843,-10,94,-9,98,-104,-107,-42,-44
,1046,2018/03/15 01:38:59.37,-2672,9704,-12891,-11,92,-6,101,-103,-107,-40,-47
,1047,2018/03/15 01:38:59.38,-2660,9694,-12932,-14,90,-9,98,-104,-107,-38,-44
,1048,2018/03/15 01:38:59.39,-2615,9676,-12942,-7,99,-7,101,-106,-108,-46,-47
,1049,2018/03/15 01:38:59.40,-2604,9645,-12930,-13,91,-8,99,-104,-107,-39,-45
,1050,2018/03/15 01:38:59.41,-2677,9603,-12909,-13,90,-12,92,-103,-104,-38,-40
,1051,2018/03/15 01:38:59.42,-2601,9599,-12921,-13,88,-7,100,-101,-107,-37,-46
,1052,2018/03/15 01:38:59.43,-2643,9565,-12898,-14,91,-12,99,-105,-111,-38,-43
,1053,2018/03/15 01:38:59.44,-2656,9657,-12897,-14,97,-13,102,-111,-115,-41,-44
,1054,2018/03/15 01:38:59.45,-2654,9709,-12864,-21,91,-18,98,-112,-116,-35,-40
,1055,2018/03/15 01:38:59.46,-2599,9697,-12897,-24,86,-26,84,-110,-110,-31,-29
,1056,2018/03/15 01:38:59.47,-2594,9833,-12793,-31,74,-28,78,-105,-106,-21,-25
,1057,2018/03/15 01:38:59.48,-2587,9834,-12804,-33,67,-29,77,-100,-106,-17,-24
,1058,2018/03/15 01:38:59.49,-2657,9878,-12953,-26,80,-27,83,-106,-110,-27,-28
,1059,2018/03/15 01:38:59.50,-2695,9833,-12884,-31,78,-25,89,-109,-114,-23,-32
,1060,2018/03/15 01:38:59.51,-2727,9797,-12906,-29,80,-28,82,-109,-110,-25,-27
,1061,2018/03/15 01:38:59.52,-2689,9719,-12873,-30,76,-24,84,-106,-108,-23,-30
,1062,2018/03/15 01:38:59.53,-2731,9658,-12923,-28,75,-24,85,-103,-109,-23,-30
,1063,2018/03/15 01:38:59.54,-2730,9672,-12904,-26,84,-25,88,-110,-113,-29,-31
,1064,2018/03/15 01:38:59.55,-2656,9680,-12892,-29,82,-24,92,-111,-116,-26,-34
,1065,2018/03/15 01:38:59.56,-2738,9638,-12958,-27,84,-26,85,-111,-111,-28,-29
,1066,2018/03/15 01:38:59.57,-2734,9617,-12942,-28,82,-25,87,-110,-112,-27,-31
,1067,2018/03/15 01:38:59.58,-2762,9663,-12873,-32,76,-28,84,-108,-112,-22,-28
,1068,2018/03/15 01:38:59.59,-2663,9686,-12933,-21,89,-26,88,-110,-114,-34,-31
,1069,2018/03/15 01:38:59.60,-2659,9671,-12952,-28,84,-21,96,-112,-117,-28,-37
,1070,2018/03/15 01:38:59.61,-2697,9734,-12830,-24,90,-23,92,-114,-115,-33,-34
,1071,2018/03/15 01:38:59.62,-2634,9738,-12766,-18,97,-19,97,-115,-116,-39,-39
,1072,2018/03/15 01:38:59.63,-2656,9794,-12845,-23,86,-12,101,-109,-113,-31,-44
,1073,2018/03/15 01:38:59.64,-2659,9786,-12898,-24,86,-26,87,-110,-113,-31,-30
,1074,2018/03/15 01:38:59.65,-2697,9677,-12893,-27,82,-31,87,-109,-118,-27,-28
,1075,2018/03/15 01:38:59.66,-2666,9726,-12973,-37,78,-38,74,-115,-112,-20,-18
,1076,2018/03/15 01:38:59.67,-2693,9723,-12964,-35,80,-32,86,-115,-118,-22,-27
,1077,2018/03/15 01:38:59.68,-2584,9704,-12921,-34,76,-30,82,-110,-112,-21,-26
,1078,2018/03/15 01:38:59.69,-2606,9735,-12947,-29,81,-31,82,-110,-113,-26,-25
,1079,2018/03/15 01:38:59.70,-2684,9704,-12872,-34,77,-29,87,-111,-116,-21,-29
,1080,2018/03/15 01:38:59.71,-2621,9728,-12871,-39,73,-31,85,-112,-116,-17,-27
,1081,2018/03/15 01:38:59.72,-2604,9743,-12901,-34,81,-40,76,-115,-116,-23,-18
,1082,2018/03/15 01:38:59.73,-2638,9662,-12922,-37,75,-31,85,-112,-116,-19,-27
,1083,2018/03/15 01:38:59.74,-2668,9629,-12904,-30,84,-31,85,-114,-116,-27,-27
,1084,2018/03/15 01:38:59.75,-2620,9643,-12900,-34,81,-31,94,-115,-125,-23,-31
,1085,2018/03/15 01:38:59.76,-2665,9610,-12875,-34,84,-31,90,-118,-121,-25,-29
,1086,2018/03/15 01:38:59.77,-2620,9611,-12920,-31,87,-25,94,-118,-119,-28,-34
,1087,2018/03/15 01:38:59.78,-2610,9564,-12904,-30,83,-25,90,-113,-115,-26,-32
,1088,2018/03/15 01:38:59.79,-2644,9659,-12877,-25,86,-26,85,-111,-111,-30,-29
,1089,2018/03/15 01:38:59.80,-2652,9642,-12874,-28,80,-22,91,-108,-113,-26,-34
,1090,2018/03/15 01:38:59.81,-2660,9678,-12933,-27,81,-24,86,-108,-110,-27,-31
,1091,2018/03/15 01:38:59.82,-2682,9647,-12913,-26,84,-25,88,-110,-113,-29,-31
,1092,2018/03/15 01:38:59.83,-2642,9625,-12825,-32,77,-27,86,-109,-113,-22,-29
,1093,2018/03/15 01:38:59.84,-2667,9650,-12811,-31,81,-30,85,-112,-115,-25,-27
,1094,2018/03/15 01:38:59.85,-2725,9632,-12812,-32,82,-25,94,-114,-119,-25,-34
,1095,2018/03/15 01:38:59.86,-2645,9631,-12845,-31,87,-26,95,-118,-121,-28,-34
,1096,2018/03/15 01:38:59.87,-2695,9688,-12843,-24,95,-19,103,-119,-122,-35,-42
,1097,2018/03/15 01:38:59.88,-2740,9641,-12889,-21,94,-13,107,-115,-120,-36,-47
,1098,2018/03/15 01:38:59.89,-2606,9656,-12961,-10,108,-14,107,-118,-121,-49,-46
,1099,2018/03/15 01:38:59.90,-2654,9721,-12911,-18,100,-13,109,-118,-122,-41,-48
,1100,2018/03/15 01:38:59.91,-2689,9722,-13009,-20,97,-18,102,-117,-120,-38,-42
,1101,2018/03/15 01:38:59.92,-2630,9729,-12956,-19,98,-15,102,-117,-117,-39,-43
,1102,2018/03/15 01:38:59.93,-2680,9728,-12893,-20,91,-14,101,-111,-115,-35,-43
,1103,2018/03/15 01:38:59.94,-2657,9694,-12920,-17,95,-16,98,-112,-114,-39,-41
,1104,2018/03/15 01:38:59.95,-2687,9765,-12942,-17,95,-10,105,-112,-115,-39,-47
,1105,2018/03/15 01:38:59.96,-2639,9765,-12905,-16,95,-13,102,-111,-115,-39,-44
,1106,2018/03/15 01:38:59.97,-2738,9773,-12898,-15,97,-16,99,-112,-115,-41,-41
,1107,2018/03/15 01:38:59.98,-2662,9784,-12912,-24,88,-19,98,-112,-117,-32,-39
,1108,2018/03/15 01:38:59.99,-2724,9790,-12901,-21,93,-22,94,-114,-116,-36,-36
,1109,2018/03/15 01:39:00.00,-2685,9817,-12964,-23,89,-19,98,-112,-117,-33,-39
,1110,2018/03/15 01:39:00.01,-2676,9757,-12822,-26,85,-20,91,-111,-111,-29,-35
,1111,2018/03/15 01:39:00.02,-2671,9768,-12912,-22,85,-20,89,-107,-109,-31,-34
,1112,2018/03/15 01:39:00.03,-2709,9745,-12848,-25,85,-18,92,-110,-110,-30,-37
,1113,2018/03/15 01:39:00.04,-2689,9721,-12849,-24,85,-16,98,-109,-114,-30,-41
,1114,2018/03/15 01:39:00.05,-2720,9714,-12852,-25,86,-21,93,-111,-114,-30,-36
,1115,2018/03/15 01:39:00.06,-2691,9654,-12899,-20,88,-24,89,-108,-113,-34,-32
,1116,2018/03/15 01:39:00.07,-2655,9694,-12848,-25,87,-21,87,-112,-108,-31,-33
,1117,2018/03/15 01:39:00.08,-2645,9718,-12883,-24,86,-18,98,-110,-116,-31,-40
,1118,2018/03/15 01:39:00.09,-2674,9723,-12864,-22,92,-27,92,-114,-119,-35,-32
,1119,2018/03/15 01:39:00.10,-2741,9635,-12872,-30,87,-27,94,-117,-121,-28,-33
,1120,2018/03/15 01:39:00.11,-2611,9675,-12872,-34,80,-33,84,-114,-117,-23,-25
,1121,2018/03/15 01:39:00.12,-2679,9687,-12886,-41,72,-37,80,-113,-117,-15,-21
,1122,2018/03/15 01:39:00.13,-2597,9634,-12856,-43,69,-50,65,-112,-115,-13,-7
,1123,2018/03/15 01:39:00.14,-2596,9660,-12842,-51,61,-56,57,-112,-113,-5,0
,1124,2018/03/15 01:39:00.15,-2649,9638,-12815,-62,47,-62,46,-109,-108,7,8
,1125,2018/03/15 01:39:00.16,-2614,9706,-12861,-72,29,-76,29,-101,-105,21,23
,1126,2018/03/15 01:39:00.17,-2623,9683,-12881,-80,20,-86,17,-100,-103,30,34
,1127,2018/03/15 01:39:00.18,-2630,9729,-12863,-97,4,-94,14,-101,-108,46,40
,1128,2018/03/15 01:39:00.19,-2605,9721,-12930,-98,8,-99,12,-106,-111,45,43
,1129,2018/03/15 01:39:00.20,-2630,9761,-12938,-97,13,-90,23,-110,-113,42,33
,1130,2018/03/15 01:39:00.21,-2691,9750,-12874,-92,19,-85,30,-111,-115,36,27
,1131,2018/03/15 01:39:00.22,-2701,9784,-12893,-84,30,-81,36,-114,-117,27,22
,1132,2018/03/15 01:39:00.23,-2693,9741,-12813,-82,31,-73,45,-113,-118,25,14
,1133,2018/03/15 01:39:00.24,-2629,9731,-12812,-75,40,-70,47,-115,-117,17,11
,1134,2018/03/15 01:39:00.25,-2611,9794,-12834,-66,48,-59,59,-114,-118,9,0
,1135,2018/03/15 01:39:00.26,-2681,9780,-12889,-61,53,-52,67,-114,-119,4,-7
,1136,2018/03/15 01:39:00.27,-2658,9749,-12971,-50,66,-46,72,-116,-118,-8,-13
,1137,2018/03/15 01:39:00.28,-2648,9725,-12893,-47,70,-40,84,-117,-124,-11,-22
,1138,2018/03/15 01:39:00.29,-2662,9739,-12874,-41,80,-40,86,-121,-126,-19,-23
,1139,2018/03/15 01:39:00.30,-2656,9662,-12974,-40,84,-35,91,-124,-126,-22,-28
,1140,2018/03/15 01:39:00.31,-2688,9662,-12846,-39,81,-32,92,-120,-124,-21,-30
,1141,2018/03/15 01:39:00.32,-2612,9716,-12794,-32,89,-29,93,-121,-122,-28,-32
,1142,2018/03/15 01:39:00.33,-2655,9702,-12844,-29,90,-23,99,-119,-122,-30,-38
,1143,2018/03/15 01:39:00.34,-2632,9744,-12825,-27,91,-27,94,-118,-121,-32,-33
,1144,2018/03/15 01:39:00.35,-2677,9797,-12815,-25,93,-21,97,-118,-118,-34,-38
,1145,2018/03/15 01:39:00.36,-2672,9771,-12872,-24,89,-16,102,-113,-118,-32,-43
,1146,2018/03/15 01:39:00.37,-2653,9830,-12973,-18,97,-16,101,-115,-117,-39,-42
,1147,2018/03/15 01:39:00.38,-2682,9753,-12976,-20,96,-15,106,-116,-121,-38,-45
,1148,2018/03/15 01:39:00.39,-2763,9788,-12911,-18,98,-18,100,-116,-118,-40,-41
,1149,2018/03/15 01:39:00.40,-2670,9789,-12920,-17,98,-16,101,-115,-117,-40,-42
,1150,2018/03/15 01:39:00.41,-2623,9817,-12890,-18,92,-14,101,-110,-115,-37,-43
,1151,2018/03/15 01:39:00.42,-2666,9770,-12890,-15,97,-15,99,-112,-114,-41,-42
,1152,2018/03/15 01:39:00.43,-2711,9746,-12937,-16,96,-11,106,-112,-117,-40,-47
,1153,2018/03/15 01:39:00.44,-2636,9751,-12850,-20,101,-13,103,-121,-116,-40,-45
,1154,2018/03/15 01:39:00.45,-2750,9726,-12859,-13,101,-8,113,-114,-121,-44,-52
,1155,2018/03/15 01:39:00.46,-2711,9725,-12835,-17,95,-12,105,-112,-117,-39,-46
,1156,2018/03/15 01:39:00.47,-2632,9703,-12845,-8,107,-17,101,-115,-118,-49,-42
,1157,2018/03/15 01:39:00.48,-2700,9681,-12844,-19,98,-13,103,-117,-116,-39,-45
,1158,2018/03/15 01:39:00.49,-2649,9693,-12794,-22,96,-22,100,-118,-122,-37,-39
,1159,2018/03/15 01:39:00.50,-2625,9717,-12799,-23,96,-20,101,-119,-121,-36,-40
,1160,2018/03/15 01:39:00.51,-2740,9670,-12830,-24,92,-22,96,-116,-118,-34,-37
,1161,2018/03/15 01:39:00.52,-2747,9650,-12886,-18,96,-18,98,-114,-116,-39,-40
,1162,2018/03/15 01:39:00.53,-2760,9654,-12890,-23,89,-15,102,-112,-117,-33,-43
,1163,2018/03/15 01:39:00.54,-2647,9711,-12795,-21,92,-16,98,-113,-114,-35,-41
,1164,2018/03/15 01:39:00.55,-2728,9685,-12857,-20,94,-19,96,-114,-115,-37,-38
,1165,2018/03/15 01:39:00.56,-2721,9674,-12855,-30,79,-18,95,-109,-113,-24,-38
,1166,2018/03/15 01:39:00.57,-2698,9631,-12846,-22,87,-17,94,-109,-111,-32,-38
,1167,2018/03/15 01:39:00.58,-2696,9646,-12845,-20,89,-15,99,-109,-114,-34,-42
,1168,2018/03/15 01:39:00.59,-2653,9670,-12888,-21,91,-20,97,-112,-117,-35,-38
,1169,2018/03/15 01:39:00.60,-2682,9658,-12863,-21,94,-22,96,-115,-118,-36,-37
,1170,2018/03/15 01:39:00.61,-2586,9702,-12908,-27,87,-21,97,-114,-118,-30,-38
,1171,2018/03/15 01:39:00.62,-2571,9700,-12931,-25,89,-24,93,-114,-117,-32,-34
,1172,2018/03/15 01:39:00.63,-2612,9729,-12966,-25,90,-20,100,-115,-120,-32,-40
,1173,2018/03/15 01:39:00.64,-2629,9693,-12984,-27,88,-24,96,-115,-120,-30,-36
,1174,2018/03/15 01:39:00.65,-2593,9707,-12934,-26,92,-26,94,-118,-120,-33,-34
,1175,2018/03/15 01:39:00.66,-2562,9700,-12941,-29,87,-22,99,-116,-121,-29,-38
,1176,2018/03/15 01:39:00.67,-2598,9725,-12910,-26,90,-24,94,-116,-118,-32,-35
,1177,2018/03/15 01:39:00.68,-2689,9681,-12936,-26,91,-22,100,-117,-122,-32,-39
,1178,2018/03/15 01:39:00.69,-2684,9686,-12914,-26,93,-24,98,-119,-122,-33,-37
,1179,2018/03/15 01:39:00.70,-2609,9726,-12920,-25,94,-25,97,-119,-122,-34,-36
,1180,2018/03/15 01:39:00.71,-2648,9719,-12943,-28,89,-22,99,-117,-121,-30,-38
,1181,2018/03/15 01:39:00.72,-2701,9733,-12893,-28,89,-28,94,-117,-122,-30,-33
,1182,2018/03/15 01:39:00.73,-2702,9667,-12908,-28,91,-25,100,-119,-125,-31,-37
,1183,2018/03/15 01:39:00.74,-2744,9706,-12885,-32,89,-27,96,-121,-123,-28,-34
,1184,2018/03/15 01:39:00.75,-2724,9739,-12904,-29,92,-28,95,-121,-123,-31,-33
,1185,2018/03/15 01:39:00.76,-2663,9707,-12848,-31,88,-26,98,-119,-124,-28,-36
,1186,2018/03/15 01:39:00.77,-2648,9743,-12883,-32,88,-30,92,-120,-122,-28,-31
,1187,2018/03/15 01:39:00.78,-2670,9782,-12928,-31,88,-27,94,-119,-121,-28,-33
,1188,2018/03/15 01:39:00.79,-2680,9796,-12881,-31,86,-28,93,-117,-121,-27,-32
,1189,2018/03/15 01:39:00.80,-2683,9779,-12835,-28,90,-25,96,-118,-121,-31,-35
,1190,2018/03/15 01:39:00.81,-2710,9772,-12877,-27,92,-21,105,-119,-126,-32,-42
,1191,2018/03/15 01:39:00.82,-2630,9731,-12908,-26,96,-25,99,-122,-124,-35,-37
,1192,2018/03/15 01:39:00.83,-2672,9710,-12905,-28,95,-27,99,-123,-126,-33,-36
,1193,2018/03/15 01:39:00.84,-2727,9677,-12890,-34,87,-29,96,-121,-125,-26,-33
,1194,2018/03/15 01:39:00.85,-2662,9683,-12852,-28,96,-28,93,-124,-121,-34,-32
,1195,2018/03/15 01:39:00.86,-2666,9689,-12872,-29,87,-18,104,-116,-122,-29,-43
,1196,2018/03/15 01:39:00.87,-2623,9625,-12896,-28,87,-26,92,-115,-118,-29,-33
,1197,2018/03/15 01:39:00.88,-2679,9693,-12921,-18,98,-22,96,-116,-118,-40,-37
,1198,2018/03/15 01:39:00.89,-2692,9658,-12912,-22,93,-15,102,-115,-117,-35,-43
,1199,2018/03/15 01:39:00.90,-2634,9663,-12909,-19,97,-18,99,-116,-117,-39,-40
,1200,2018/03/15 01:39:00.91,-2631,9673,-12839,-21,92,-17,100,-113,-117,-35,-41
,1201,2018/03/15 01:39:00.92,-2621,9693,-12892,-24,90,-28,90,-114,-118,-33,-31
,1202,2018/03/15 01:39:00.93,-2617,9721,-12890,-24,95,-23,101,-119,-124,-35,-39
,1203,2018/03/15 01:39:00.94,-2607,9725,-12914,-31,87,-23,100,-118,-123,-28,-38
,1204,2018/03/15 01:39:00.95,-2705,9738,-12926,-28,92,-26,94,-120,-120,-32,-34
,1205,2018/03/15 01:39:00.96,-2653,9673,-12924,-29,88,-23,96,-117,-119,-29,-36
,1206,2018/03/15 01:39:00.97,-2664,9664,-12808,-27,88,-26,92,-115,-118,-30,-33
,1207,2018/03/15 01:39:00.98,-2636,9693,-12863,-28,89,-23,96,-117,-119,-30,-36
,1208,2018/03/15 01:39:00.99,-2606,9608,-12923,-28,87,-23,96,-115,-119,-29,-36
,1209,2018/03/15 01:39:01.00,-2630,9689,-12861,-25,89,-20,95,-114,-115,-32,-37
,1210,2018/03/15 01:39:01.01,-2652,9710,-12856,-21,91,-15,101,-112,-116,-35,-43
,1211,2018/03/15 01:39:01.02,-2685,9710,-12882,-23,89,-19,95,-112,-114,-33,-38
,1212,2018/03/15 01:39:01.03,-2638,9700,-12876,-20,92,-20,94,-112,-114,-36,-37
,1213,2018/03/15 01:39:01.04,-2643,9722,-12975,-26,85,-20,96,-111,-116,-29,-38
,1214,2018/03/15 01:39:01.05,-2614,9728,-12929,-26,89,-27,91,-115,-118,-31,-32
,1215,2018/03/15 01:39:01.06,-2647,9706,-12940,-30,85,-25,93,-115,-118,-27,-34
,1216,2018/03/15 01:39:01.07,-2642,9696,-12962,-32,82,-28,90,-114,-118,-25,-31
,1217,2018/03/15 01:39:01.08,-2608,9734,-12923,-28,88,-24,95,-116,-119,-30,-35
,1218,2018/03/15 01:39:01.09,-2706,9772,-12907,-26,90,-21,99,-116,-120,-32,-39
,1219,2018/03/15 01:39:01.10,-2698,9737,-12900,-25,91,-20,95,-116,-115,-33,-37
,1220,2018/03/15 01:39:01.11,-2654,9677,-12900,-19,93,-13,100,-112,-113,-37,-43
,1221,2018/03/15 01:39:01.12,-2620,9682,-12882,-21,89,-18,97,-110,-115,-34,-39
,1222,2018/03/15 01:39:01.13,-2589,9700,-12888,-22,94,-22,98,-116,-120,-36,-38
,1223,2018/03/15 01:39:01.14,-2621,9675,-12878,-26,90,-19,101,-116,-120,-32,-41
,1224,2018/03/15 01:39:01.15,-2598,9642,-12877,-24,94,-22,96,-118,-118,-35,-37
,1225,2018/03/15 01:39:01.16,-2629,9646,-12877,-24,92,-20,99,-116,-119,-34,-39
,1226,2018/03/15 01:39:01.17,-2665,9666,-12897,-28,87,-24,96,-115,-120,-29,-36
,1227,2018/03/15 01:39:01.18,-2627,9604,-12851,-26,92,-24,96,-118,-120,-33,-36
,1228,2018/03/15 01:39:01.19,-2607,9614,-12873,-25,94,-22,100,-119,-122,-34,-39
,1229,2018/03/15 01:39:01.20,-2683,9681,-12901,-27,91,-28,91,-118,-119,-32,-31
,1230,2018/03/15 01:39:01.21,-2703,9653,-12919,-29,88,-23,93,-117,-116,-29,-35
,1231,2018/03/15 01:39:01.22,-2627,9662,-12913,-30,80,-24,90,-110,-114,-25,-33
,1232,2018/03/15 01:39:01.23,-2670,9683,-12904,-27,85,-27,89,-112,-116,-29,-31
,1233,2018/03/15 01:39:01.24,-2688,9717,-12818,-31,82,-26,92,-113,-118,-25,-33
,1234,2018/03/15 01:39:01.25,-2709,9641,-12821,-31,82,-30,84,-113,-114,-25,-27
,1235,2018/03/15 01:39:01.26,-2628,9693,-12814,-32,86,-30,87,-118,-117,-27,-28
,1236,2018/03/15 01:39:01.27,-2678,9694,-12881,-36,78,-32,92,-114,-124,-21,-30
,1237,2018/03/15 01:39:01.28,-2726,9731,-12850,-35,84,-34,86,-119,-120,-24,-26
,1238,2018/03/15 01:39:01.29,-2701,9761,-12841,-29,89,-31,91,-118,-122,-30,-30
,1239,2018/03/15 01:39:01.30,-2617,9808,-12930,-36,83,-29,89,-119,-118,-23,-30
,1240,2018/03/15 01:39:01.31,-2583,9734,-12974,-36,85,-35,89,-121,-124,-24,-27
,1241,2018/03/15 01:39:01.32,-2661,9805,-12933,-40,80,-35,88,-120,-123,-20,-26
,1242,2018/03/15 01:39:01.33,-2591,9798,-12940,-36,84,-40,79,-120,-119,-24,-19
,1243,2018/03/15 01:39:01.34,-2598,9738,-12994,-37,81,-31,91,-118,-122,-22,-30
,1244,2018/03/15 01:39:01.35,-2680,9740,-12939,-37,80,-34,91,-117,-125,-21,-28
,1245,2018/03/15 01:39:01.36,-2676,9703,-12902,-36,88,-38,88,-124,-126,-26,-25
,1246,2018/03/15 01:39:01.37,-2632,9748,-12869,-41,86,-37,93,-127,-130,-22,-28
,1247,2018/03/15 01:39:01.38,-2627,9717,-12893,-37,91,-38,91,-128,-129,-27,-26
,1248,2018/03/15 01:39:01.39,-2674,9748,-12859,-36,90,-33,96,-126,-129,-27,-31
,1249,2018/03/15 01:39:01.40,-2727,9704,-12862,-39,86,-39,89,-125,-128,-23,-25
,1250,2018/03/15 01:39:01.41,-2682,9724,-12805,-40,86,-36,92,-126,-128,-23,-28
,1251,2018/03/15 01:39:01.42,-2684,9658,-12836,-42,80,-34,90,-122,-124,-19,-28
,1252,2018/03/15 01:39:01.43,-2754,9674,-12920,-36,84,-34,88,-120,-122,-24,-27
,1253,2018/03/15 01:39:01.44,-2659,9677,-12917,-37,81,-33,89,-118,-122,-22,-28
,1254,2018/03/15 01:39:01.45,-2698,9669,-12845,-41,77,-39,82,-118,-121,-18,-21
,1255,2018/03/15 01:39:01.46,-2648,9652,-12896,-40,80,-38,85,-120,-123,-20,-23
,1256,2018/03/15 01:39:01.47,-2686,9689,-12913,-42,77,-34,88,-119,-122,-17,-27
,1257,2018/03/15 01:39:01.48,-2607,9702,-12915,-36,82,-35,82,-118,-117,-23,-23
,1258,2018/03/15 01:39:01.49,-2650,9658,-12855,-34,78,-31,84,-112,-115,-22,-26
,1259,2018/03/15 01:39:01.50,-2669,9696,-12894,-36,72,-33,78,-108,-111,-18,-22
,1260,2018/03/15 01:39:01.51,-2627,9677,-12791,-34,77,-32,82,-111,-114,-21,-25
,1261,2018/03/15 01:39:01.52,-2588,9662,-12854,-39,73,-35,84,-112,-119,-17,-24
,1262,2018/03/15 01:39:01.53,-2573,9695,-12844,-39,77,-39,80,-116,-119,-19,-20
,1263,2018/03/15 01:39:01.54,-2673,9676,-12847,-40,76,-33,86,-116,-119,-18,-26
,1264,2018/03/15 01:39:01.55,-2672,9675,-12900,-38,75,-34,81,-113,-115,-18,-23
,1265,2018/03/15 01:39:01.56,-2639,9708,-12880,-34,78,-32,82,-112,-114,-22,-25
,1266,2018/03/15 01:39:01.57,-2624,9775,-12896,-37,74,-30,86,-111,-116,-18,-28
,1267,2018/03/15 01:39:01.58,-2620,9744,-12927,-34,80,-34,85,-114,-119,-23,-25
,1268,2018/03/15 01:39:01.59,-2615,9777,-12861,-34,84,-32,90,-118,-122,-25,-29
,1269,2018/03/15 01:39:01.60,-2644,9736,-12881,-39,79,-35,85,-118,-120,-20,-25
,1270,2018/03/15 01:39:01.61,-2675,9684,-12969,-38,82,-39,86,-120,-125,-22,-23
,1271,2018/03/15 01:39:01.62,-2651,9756,-12876,-48,79,-44,92,-127,-136,-15,-24
,1272,2018/03/15 01:39:01.63,-2665,9716,-12933,-50,86,-49,90,-136,-139,-18,-20
,1273,2018/03/15 01:39:01.64,-2698,9751,-12989,-48,88,-45,96,-136,-141,-20,-25
,1274,2018/03/15 01:39:01.65,-2647,9755,-12917,-48,85,-41,92,-133,-133,-18,-25
,1275,2018/03/15 01:39:01.66,-2692,9669,-12955,-41,90,-39,94,-131,-133,-24,-27
,1276,2018/03/15 01:39:01.67,-2627,9672,-12980,-47,86,-36,96,-133,-132,-19,-30
,1277,2018/03/15 01:39:01.68,-2645,9709,-12840,-39,88,-40,94,-127,-134,-24,-27
,1278,2018/03/15 01:39:01.69,-2673,9742,-12811,-36,91,-34,96,-127,-130,-27,-31
,1279,2018/03/15 01:39:01.70,-2683,9736,-12807,-32,96,-35,98,-128,-133,-32,-31
,1280,2018/03/15 01:39:01.71,-2640,9761,-12781,-35,96,-29,103,-131,-132,-30,-37
,1281,2018/03/15 01:39:01.72,-2598,9728,-12835,-36,95,-27,107,-131,-134,-29,-40
,1282,2018/03/15 01:39:01.73,-2670,9746,-12922,-29,98,-24,102,-127,-126,-34,-39
,1283,2018/03/15 01:39:01.74,-2667,9747,-12952,-24,99,-21,105,-123,-126,-37,-42
,1284,2018/03/15 01:39:01.75,-2582,9726,-12966,-29,95,-26,104,-124,-130,-33,-39
,1285,2018/03/15 01:39:01.76,-2595,9720,-12968,-34,95,-34,103,-129,-137,-30,-34
,1286,2018/03/15 01:39:01.77,-2587,9687,-12927,-38,95,-39,96,-133,-135,-28,-28
,1287,2018/03/15 01:39:01.78,-2525,9734,-12902,-37,96,-35,99,-133,-134,-29,-32
,1288,2018/03/15 01:39:01.79,-2571,9708,-12905,-33,97,-32,99,-130,-131,-32,-33
,1289,2018/03/15 01:39:01.80,-2579,9740,-12940,-42,86,-35,97,-128,-132,-22,-31
,1290,2018/03/15 01:39:01.81,-2613,9697,-12868,-39,90,-38,92,-129,-130,-25,-27
,1291,2018/03/15 01:39:01.82,-2611,9694,-12899,-41,85,-32,97,-126,-129,-22,-32
,1292,2018/03/15 01:39:01.83,-2647,9657,-12966,-38,86,-36,90,-124,-126,-24,-27
,1293,2018/03/15 01:39:01.84,-2631,9675,-12910,-37,88,-32,95,-125,-127,-25,-31
,1294,2018/03/15 01:39:01.85,-2576,9682,-12880,-36,86,-28,96,-122,-124,-25,-34
,1295,2018/03/15 01:39:01.86,-2611,9651,-12919,-30,90,-30,93,-120,-123,-30,-31
,1296,2018/03/15 01:39:01.87,-2556,9636,-12891,-35,85,-32,95,-120,-127,-25,-31
,1297,2018/03/15 01:39:01.88,-2651,9653,-12912,-40,85,-39,90,-125,-129,-22,-25
,1298,2018/03/15 01:39:01.89,-2603,9656,-12864,-36,92,-37,93,-128,-130,-28,-28
,1299,2018/03/15 01:39:01.90,-2628,9593,-12930,-42,81,-36,90,-123,-126,-19,-27
,1300,2018/03/15 01:39:01.91,-2651,9634,-12898,-40,82,-42,83,-122,-125,-21,-20
,1301,2018/03/15 01:39:01.92,-2609,9606,-12875,-48,76,-43,85,-124,-128,-14,-21
,1302,2018/03/15 01:39:01.93,-2663,9653,-12889,-50,75,-47,81,-125,-128,-12,-17
,1303,2018/03/15 01:39:01.94,-2599,9632,-12910,-48,80,-45,88,-128,-133,-16,-21
,1304,2018/03/15 01:39:01.95,-2626,9635,-12870,-50,80,-42,90,-130,-132,-15,-24
,1305,2018/03/15 01:39:01.96,-2546,9758,-12930,-44,84,-41,86,-128,-127,-20,-22
,1306,2018/03/15 01:39:01.97,-2582,9814,-12891,-43,78,-38,87,-121,-125,-17,-24
,1307,2018/03/15 01:39:01.98,-2612,9771,-12912,-44,76,-42,84,-120,-126,-16,-21
,1308,2018/03/15 01:39:01.99,-2549,9690,-12923,-40,85,-40,90,-125,-130,-22,-25
,1309,2018/03/15 01:39:02.00,-2603,9728,-12976,-45,81,-37,92,-126,-129,-18,-27
,1310,2018/03/15 01:39:02.01,-2656,9718,-12961,-39,86,-37,89,-125,-126,-23,-26
,1311,2018/03/15 01:39:02.02,-2612,9735,-12928,-39,83,-33,93,-122,-126,-22,-30
,1312,2018/03/15 01:39:02.03,-2579,9678,-12919,-38,83,-34,88,-121,-122,-22,-27
,1313,2018/03/15 01:39:02.04,-2586,9685,-12931,-33,86,-29,91,-119,-120,-26,-31
,1314,2018/03/15 01:39:02.05,-2620,9737,-12944,-30,85,-30,93,-115,-123,-27,-31
,1315,2018/03/15 01:39:02.06,-2637,9704,-12944,-34,86,-34,86,-120,-120,-26,-26
,1316,2018/03/15 01:39:02.07,-2610,9694,-12917,-36,81,-31,90,-117,-121,-22,-29
,1317,2018/03/15 01:39:02.08,-2675,9688,-12904,-44,74,-33,85,-118,-118,-15,-26
,1318,2018/03/15 01:39:02.09,-2719,9675,-12910,-31,86,-28,96,-117,-124,-27,-34
,1319,2018/03/15 01:39:02.10,-2671,9736,-12898,-36,82,-32,90,-118,-122,-23,-29
,1320,2018/03/15 01:39:02.11,-2622,9700,-12888,-28,91,-38,82,-119,-120,-31,-22
,1321,2018/03/15 01:39:02.12,-2694,9725,-12873,-41,79,-30,93,-120,-123,-19,-31
,1322,2018/03/15 01:39:02.13,-2678,9689,-12878,-40,81,-35,91,-121,-126,-20,-28
,1323,2018/03/15 01:39:02.14,-2717,9731,-12858,-26,98,-35,93,-124,-128,-36,-29
,1324,2018/03/15 01:39:02.15,-2773,9729,-12849,-42,83,-41,88,-125,-129,-20,-23
,1325,2018/03/15 01:39:02.16,-2701,9694,-12895,-44,82,-45,84,-126,-129,-19,-19
,1326,2018/03/15 01:39:02.17,-2669,9751,-12939,-47,78,-40,89,-125,-129,-15,-24
,1327,2018/03/15 01:39:02.18,-2616,9688,-12919,-44,80,-43,79,-124,-122,-18,-18
,1328,2018/03/15 01:39:02.19,-2612,9668,-12901,-34,88,-35,87,-122,-122,-27,-26
,1329,2018/03/15 01:39:02.20,-2605,9698,-12919,-38,81,-34,89,-119,-123,-21,-27
,1330,2018/03/15 01:39:02.21,-2635,9690,-12951,-41,80,-39,85,-121,-124,-19,-23
,1331,2018/03/15 01:39:02.22,-2578,9672,-12908,-41,82,-37,90,-123,-127,-20,-26
,1332,2018/03/15 01:39:02.23,-2606,9668,-12841,-43,79,-40,86,-122,-126,-18,-23
,1333,2018/03/15 01:39:02.24,-2650,9675,-12900,-41,84,-40,87,-125,-127,-21,-23
,1334,2018/03/15 01:39:02.25,-2589,9706,-12925,-44,82,-41,91,-126,-132,-19,-25
,1335,2018/03/15 01:39:02.26,-2675,9738,-12936,-45,84,-44,88,-129,-132,-19,-22
,1336,2018/03/15 01:39:02.27,-2656,9726,-12912,-45,82,-40,89,-127,-129,-18,-24
,1337,2018/03/15 01:39:02.28,-2575,9730,-12898,-46,76,-41,85,-122,-126,-15,-22
,1338,2018/03/15 01:39:02.29,-2664,9743,-12885,-40,83,-40,85,-123,-125,-21,-22
,1339,2018/03/15 01:39:02.30,-2658,9716,-12923,-43,79,-34,92,-122,-126,-18,-29
,1340,2018/03/15 01:39:02.31,-2631,9732,-12889,-38,83,-35,88,-121,-123,-22,-26
,1341,2018/03/15 01:39:02.32,-2664,9779,-12821,-35,85,-33,90,-120,-123,-25,-28
,1342,2018/03/15 01:39:02.33,-2625,9697,-12856,-42,78,-38,87,-120,-125,-18,-24
,1343,2018/03/15 01:39:02.34,-2697,9686,-13028,-39,85,-37,89,-124,-126,-23,-26
,1344,2018/03/15 01:39:02.35,-2762,9643,-12937,-39,83,-33,93,-122,-126,-22,-30
,1345,2018/03/15 01:39:02.36,-2681,9599,-12940,-40,81,-41,83,-121,-124,-20,-21
,1346,2018/03/15 01:39:02.37,-2668,9675,-12942,-42,79,-38,86,-121,-124,-18,-24
,1347,2018/03/15 01:39:02.38,-2671,9721,-12865,-40,77,-31,87,-117,-118,-18,-28
,1348,2018/03/15 01:39:02.39,-2715,9664,-12767,-26,85,-24,85,-111,-109,-29,-30
,1349,2018/03/15 01:39:02.40,-2673,9744,-12783,-24,77,-16,86,-101,-102,-26,-35
,1350,2018/03/15 01:39:02.41,-2646,9783,-12780,-19,75,-16,79,-94,-95,-28,-31
,1351,2018/03/15 01:39:02.42,-2628,9741,-12830,-18,77,-17,83,-95,-100,-29,-33
,1352,2018/03/15 01:39:02.43,-2669,9802,-12946,-25,72,-22,81,-97,-103,-23,-29
,1353,2018/03/15 01:39:02.44,-2607,9819,-12967,-27,75,-28,77,-102,-105,-24,-24
,1354,2018/03/15 01:39:02.45,-2569,9860,-12983,-31,71,-24,83,-102,-107,-20,-29
,1355,2018/03/15 01:39:02.46,-2612,9887,-12959,-26,78,-25,82,-104,-107,-26,-28
,1356,2018/03/15 01:39:02.47,-2661,9862,-12944,-26,78,-26,81,-104,-107,-26,-27
,1357,2018/03/15 01:39:02.48,-2611,9831,-12932,-34,68,-30,76,-102,-106,-17,-23
,1358,2018/03/15 01:39:02.49,-2653,9759,-12895,-36,65,-30,76,-101,-106,-14,-23
,1359,2018/03/15 01:39:02.50,-2676,9768,-12862,-30,75,-24,92,-105,-116,-22,-34
,1360,2018/03/15 01:39:02.51,-2718,9677,-12902,-30,79,-29,86,-109,-115,-24,-28
,1361,2018/03/15 01:39:02.52,-2682,9675,-12910,-25,92,-32,90,-117,-122,-33,-29
,1362,2018/03/15 01:39:02.53,-2668,9638,-12893,-38,80,-26,94,-118,-120,-21,-34
,1363,2018/03/15 01:39:02.54,-2659,9595,-12937,-32,86,-30,88,-118,-118,-27,-29
,1364,2018/03/15 01:39:02.55,-2695,9563,-12888,-32,81,-27,89,-113,-116,-24,-31
,1365,2018/03/15 01:39:02.56,-2678,9584,-12846,-36,76,-38,75,-112,-113,-20,-18
,1366,2018/03/15 01:39:02.57,-2730,9637,-12864,-35,78,-32,83,-113,-115,-21,-25
,1367,2018/03/15 01:39:02.58,-2672,9642,-12883,-35,75,-28,89,-110,-117,-20,-30
,1368,2018/03/15 01:39:02.59,-2676,9603,-12862,-31,83,-33,84,-114,-117,-26,-25
,1369,2018/03/15 01:39:02.60,-2698,9609,-12883,-38,76,-33,86,-114,-119,-19,-26
,1370,2018/03/15 01:39:02.61,-2738,9604,-12863,-40,76,-40,80,-116,-120,-18,-20
,1371,2018/03/15 01:39:02.62,-2783,9656,-12852,-43,76,-42,79,-119,-121,-16,-18
,1372,2018/03/15 01:39:02.63,-2753,9680,-12831,-48,70,-43,80,-118,-123,-11,-18
,1373,2018/03/15 01:39:02.64,-2696,9634,-12824,-44,76,-44,76,-120,-120,-16,-16
,1374,2018/03/15 01:39:02.65,-2673,9669,-12847,-46,72,-44,79,-118,-123,-13,-17
,1375,2018/03/15 01:39:02.66,-2705,9665,-12876,-50,69,-46,77,-119,-123,-9,-15
,1376,2018/03/15 01:39:02.67,-2677,9744,-12883,-47,76,-46,81,-123,-127,-14,-17
,1377,2018/03/15 01:39:02.68,-2718,9735,-12941,-50,75,-44,87,-125,-131,-12,-21
,1378,2018/03/15 01:39:02.69,-2698,9709,-12899,-47,82,-47,84,-129,-131,-17,-18
,1379,2018/03/15 01:39:02.70,-2649,9703,-12906,-47,81,-42,89,-128,-131,-17,-23
,1380,2018/03/15 01:39:02.71,-2646,9758,-12931,-49,77,-45,85,-126,-130,-14,-20
,1381,2018/03/15 01:39:02.72,-2659,9776,-12944,-47,80,-47,82,-127,-129,-16,-17
,1382,2018/03/15 01:39:02.73,-2702,9731,-12979,-50,73,-44,83,-123,-127,-11,-19
,1383,2018/03/15 01:39:02.74,-2642,9743,-12904,-48,76,-47,79,-124,-126,-14,-16
,1384,2018/03/15 01:39:02.75,-2590,9724,-12914,-51,73,-50,79,-124,-129,-11,-14
,1385,2018/03/15 01:39:02.76,-2630,9721,-12875,-57,68,-54,77,-125,-131,-5,-11
,1386,2018/03/15 01:39:02.77,-2586,9735,-12892,-55,75,-52,79,-130,-131,-10,-13
,1387,2018/03/15 01:39:02.78,-2711,9780,-12898,-56,72,-50,83,-128,-133,-8,-16
,1388,2018/03/15 01:39:02.79,-2704,9780,-12897,-52,76,-53,77,-128,-130,-12,-12
,1389,2018/03/15 01:39:02.80,-2600,9749,-12907,-54,74,-50,82,-128,-132,-10,-16
,1390,2018/03/15 01:39:02.81,-2679,9709,-12855,-57,72,-51,82,-129,-133,-7,-15
,1391,2018/03/15 01:39:02.82,-2754,9690,-12858,-51,80,-48,84,-131,-132,-14,-18
,1392,2018/03/15 01:39:02.83,-2601,9724,-12935,-52,77,-46,87,-129,-133,-12,-20
,1393,2018/03/15 01:39:02.84,-2559,9686,-12910,-52,79,-51,83,-131,-134,-13,-16
,1394,2018/03/15 01:39:02.85,-2623,9667,-12876,-52,80,-47,88,-132,-135,-14,-20
,1395,2018/03/15 01:39:02.86,-2623,9727,-12861,-50,78,-41,88,-128,-129,-14,-23
,1396,2018/03/15 01:39:02.87,-2621,9717,-12864,-35,87,-39,86,-122,-125,-26,-23
,1397,2018/03/15 01:39:02.88,-2715,9685,-12865,-42,79,-36,89,-121,-125,-18,-26
,1398,2018/03/15 01:39:02.89,-2593,9714,-12891,-40,84,-45,82,-124,-127,-22,-18
,1399,2018/03/15 01:39:02.90,-2592,9708,-12893,-58,70,-49,82,-128,-131,-6,-16
,1400,2018/03/15 01:39:02.91,-2585,9699,-12878,-57,67,-60,74,-124,-134,-5,-7
,1401,2018/03/15 01:39:02.92,-2657,9693,-12909,-59,62,-61,61,-121,-122,-1,0
,1402,2018/03/15 01:39:02.93,-2702,9680,-12900,-64,56,-71,52,-120,-123,4,9
,1403,2018/03/15 01:39:02.94,-2641,9649,-12883,-83,35,-80,38,-118,-118,24,21
,1404,2018/03/15 01:39:02.95,-2641,9676,-12860,-90,28,-92,30,-118,-122,31,31
,1405,2018/03/15 01:39:02.96,-2663,9671,-12901,-99,20,-99,26,-119,-125,39,36
,1406,2018/03/15 01:39:02.97,-2669,9653,-12927,-104,21,-109,18,-125,-127,41,45
,1407,2018/03/15 01:39:02.98,-2633,9666,-12916,-107,21,-99,34,-128,-133,43,32
,1408,2018/03/15 01:39:02.99,-2726,9738,-12860,-94,35,-90,43,-129,-133,29,23
,1409,2018/03/15 01:39:03.00,-2669,9695,-12855,-81,50,-72,64,-131,-136,15,4
,1410,2018/03/15 01:39:03.01,-2776,9761,-12853,-70,60,-60,74,-130,-134,5,-7
,1411,2018/03/15 01:39:03.02,-2749,9708,-12931,-55,76,-52,78,-131,-130,-10,-13
,1412,2018/03/15 01:39:03.03,-2749,9619,-12950,-51,76,-44,85,-127,-129,-12,-20
,1413,2018/03/15 01:39:03.04,-2740,9641,-12919,-45,79,-41,85,-124,-126,-17,-22
,1414,2018/03/15 01:39:03.05,-2731,9668,-12904,-39,86,-38,91,-125,-129,-23,-26
,1415,2018/03/15 01:39:03.06,-2700,9669,-12861,-43,83,-34,97,-126,-131,-20,-31
,1416,2018/03/15 01:39:03.07,-2793,9706,-12817,-36,93,-33,98,-129,-131,-28,-32
,1417,2018/03/15 01:39:03.08,-2687,9743,-12795,-35,93,-31,102,-128,-133,-29,-35
,1418,2018/03/15 01:39:03.09,-2754,9716,-12802,-32,96,-31,100,-128,-131,-32,-34
,1419,2018/03/15 01:39:03.10,-2680,9739,-12884,-29,99,-26,103,-128,-129,-35,-38
,1420,2018/03/15 01:39:03.11,-2654,9759,-12953,-30,97,-24,108,-127,-132,-33,-42
,1421,2018/03/15 01:39:03.12,-2580,9702,-13020,-28,104,-27,108,-132,-135,-38,-40
,1422,2018/03/15 01:39:03.13,-2576,9680,-13032,-29,103,-23,112,-132,-135,-37,-44
,1423,2018/03/15 01:39:03.14,-2637,9706,-12954,-29,100,-24,107,-129,-131,-35,-41
,1424,2018/03/15 01:39:03.15,-2687,9724,-12935,-24,104,-19,110,-128,-129,-40,-45
,1425,2018/03/15 01:39:03.16,-2623,9710,-12897,-25,100,-20,110,-125,-130,-37,-45
,1426,2018/03/15 01:39:03.17,-2614,9718,-12930,-25,102,-27,102,-127,-129,-38,-37
,1427,2018/03/15 01:39:03.18,-2609,9704,-12947,-31,97,-28,105,-128,-133,-33,-38
,1428,2018/03/15 01:39:03.19,-2695,9717,-12876,-32,96,-31,101,-128,-132,-32,-35
,1429,2018/03/15 01:39:03.20,-2658,9712,-12892,-30,99,-27,104,-129,-131,-34,-38
,1430,2018/03/15 01:39:03.21,-2653,9654,-12965,-30,96,-22,108,-126,-130,-33,-43
,1431,2018/03/15 01:39:03.22,-2603,9697,-12894,-28,100,-27,102,-128,-129,-36,-37
,1432,2018/03/15 01:39:03.23,-2644,9665,-12897,-31,96,-27,103,-127,-130,-32,-38
,1433,2018/03/15 01:39:03.24,-2656,9640,-12939,-33,91,-29,100,-124,-129,-29,-35
,1434,2018/03/15 01:39:03.25,-2771,9624,-12899,-28,97,-26,100,-125,-126,-34,-37
,1435,2018/03/15 01:39:03.26,-2752,9658,-12910,-30,91,-22,102,-121,-124,-30,-40
,1436,2018/03/15 01:39:03.27,-2768,9639,-12868,-28,94,-27,98,-122,-125,-33,-35
,1437,2018/03/15 01:39:03.28,-2726,9601,-12900,-21,100,-26,103,-121,-129,-39,-38
,1438,2018/03/15 01:39:03.29,-2674,9656,-12829,-31,92,-30,96,-123,-126,-30,-33
,1439,2018/03/15 01:39:03.30,-2717,9656,-12841,-35,90,-35,92,-125,-127,-27,-28
,1440,2018/03/15 01:39:03.31,-2776,9676,-12816,-50,75,-34,97,-125,-131,-12,-31
,1441,2018/03/15 01:39:03.32,-2656,9657,-12824,-41,90,-46,93,-131,-139,-24,-23
,1442,2018/03/15 01:39:03.33,-2721,9699,-12864,-39,93,-33,102,-132,-135,-27,-34
,1443,2018/03/15 01:39:03.34,-2781,9714,-12862,-32,99,-33,98,-131,-131,-33,-32
,1444,2018/03/15 01:39:03.35,-2660,9680,-12930,-34,94,-28,101,-128,-129,-30,-36
,1445,2018/03/15 01:39:03.36,-2658,9708,-12939,-37,88,-31,98,-125,-129,-25,-33
,1446,2018/03/15 01:39:03.37,-2672,9707,-12963,-37,88,-37,90,-125,-127,-25,-26
,1447,2018/03/15 01:39:03.38,-2687,9680,-12959,-41,86,-40,90,-127,-130,-22,-25
,1448,2018/03/15 01:39:03.39,-2678,9704,-12911,-42,84,-38,91,-126,-129,-21,-26
,1449,2018/03/15 01:39:03.40,-2712,9675,-12966,-39,86,-39,90,-125,-129,-23,-25
,1450,2018/03/15 01:39:03.41,-2656,9660,-12931,-40,83,-37,86,-123,-123,-21,-24
,1451,2018/03/15 01:39:03.42,-2666,9695,-12890,-37,84,-36,87,-121,-123,-23,-25
,1452,2018/03/15 01:39:03.43,-2701,9698,-12905,-38,84,-37,89,-122,-126,-23,-26
,1453,2018/03/15 01:39:03.44,-2652,9706,-12854,-45,79,-40,88,-124,-128,-17,-24
,1454,2018/03/15 01:39:03.45,-2733,9715,-12913,-42,84,-41,88,-126,-129,-21,-23
,1455,2018/03/15 01:39:03.46,-2653,9717,-12941,-44,82,-36,93,-126,-129,-19,-28
,1456,2018/03/15 01:39:03.47,-2680,9749,-12897,-38,85,-34,90,-123,-124,-23,-28
,1457,2018/03/15 01:39:03.48,-2659,9669,-12919,-32,89,-29,96,-121,-125,-28,-33
,1458,2018/03/15 01:39:03.49,-2721,9707,-12940,-33,88,-31,95,-121,-126,-27,-32
,1459,2018/03/15 01:39:03.50,-2720,9711,-12894,-35,89,-35,92,-124,-127,-27,-28
,1460,2018/03/15 01:39:03.51,-2685,9660,-12912,-37,86,-29,99,-123,-128,-24,-35
,1461,2018/03/15 01:39:03.52,-2678,9669,-12934,-33,91,-30,96,-124,-126,-29,-33
,1462,2018/03/15 01:39:03.53,-2697,9717,-12868,-32,92,-31,96,-124,-127,-30,-32
,1463,2018/03/15 01:39:03.54,-2681,9703,-12868,-39,83,-34,94,-122,-128,-22,-30
,1464,2018/03/15 01:39:03.55,-2695,9630,-12882,-37,90,-35,94,-127,-129,-26,-29
,1465,2018/03/15 01:39:03.56,-2700,9705,-12923,-38,89,-31,99,-127,-130,-25,-34
,1466,2018/03/15 01:39:03.57,-2673,9717,-12903,-37,89,-33,94,-126,-127,-26,-30
,1467,2018/03/15 01:39:03.58,-2659,9699,-12894,-32,92,-25,99,-124,-124,-30,-37
,1468,2018/03/15 01:39:03.59,-2692,9689,-12879,-24,95,-18,105,-119,-123,-35,-43
,1469,2018/03/15 01:39:03.60,-2656,9720,-12894,-20,101,-20,103,-121,-123,-40,-41
,1470,2018/03/15 01:39:03.61,-2660,9705,-12903,-24,97,-21,105,-121,-126,-36,-42
,1471,2018/03/15 01:39:03.62,-2682,9701,-12921,-29,93,-27,98,-122,-125,-32,-35
,1472,2018/03/15 01:39:03.63,-2672,9700,-12940,-28,94,-27,97,-122,-124,-33,-35
,1473,2018/03/15 01:39:03.64,-2582,9660,-12954,-32,86,-27,94,-118,-121,-27,-33
,1474,2018/03/15 01:39:03.65,-2661,9632,-12972,-32,88,-34,91,-120,-125,-28,-28
,1475,2018/03/15 01:39:03.66,-2654,9637,-12943,-37,87,-31,98,-124,-129,-25,-33
,1476,2018/03/15 01:39:03.67,-2684,9680,-12953,-37,87,-34,93,-124,-127,-25,-29
,1477,2018/03/15 01:39:03.68,-2711,9687,-12868,-35,89,-34,91,-124,-125,-27,-28
,1478,2018/03/15 01:39:03.69,-2596,9683,-12928,-27,95,-29,95,-122,-124,-34,-33
,1479,2018/03/15 01:39:03.70,-2646,9611,-12939,-32,90,-27,96,-122,-123,-29,-34
,1480,2018/03/15 01:39:03.71,-2638,9708,-12863,-32,91,-28,98,-123,-126,-29,-35
,1481,2018/03/15 01:39:03.72,-2659,9714,-12949,-42,77,-29,93,-119,-122,-17,-32
,1482,2018/03/15 01:39:03.73,-2663,9670,-13013,-29,91,-37,88,-120,-125,-31,-25
,1483,2018/03/15 01:39:03.74,-2723,9606,-12958,-34,85,-29,96,-119,-125,-25,-33
,1484,2018/03/15 01:39:03.75,-2707,9600,-12996,-28,94,-34,91,-122,-125,-33,-28
,1485,2018/03/15 01:39:03.76,-2680,9611,-12895,-34,89,-27,102,-123,-129,-27,-37
,1486,2018/03/15 01:39:03.77,-2703,9581,-12846,-39,85,-36,90,-124,-126,-23,-27
,1487,2018/03/15 01:39:03.78,-2690,9600,-12806,-39,87,-36,91,-126,-127,-24,-27
,1488,2018/03/15 01:39:03.79,-2648,9583,-12810,-38,85,-36,93,-123,-129,-23,-28
,1489,2018/03/15 01:39:03.80,-2719,9657,-12831,-38,85,-38,86,-123,-124,-23,-24
,1490,2018/03/15 01:39:03.81,-2627,9634,-12870,-40,79,-40,84,-119,-124,-19,-22
,1491,2018/03/15 01:39:03.82,-2690,9695,-12929,-47,75,-47,79,-122,-126,-14,-16
,1492,2018/03/15 01:39:03.83,-2698,9653,-13023,-42,85,-39,88,-127,-127,-21,-24
,1493,2018/03/15 01:39:03.84,-2707,9682,-13009,-41,82,-36,90,-123,-126,-20,-27
,1494,2018/03/15 01:39:03.85,-2644,9704,-13018,-41,81,-41,82,-122,-123,-20,-20
,1495,2018/03/15 01:39:03.86,-2671,9700,-12984,-42,81,-39,89,-123,-128,-19,-25
,1496,2018/03/15 01:39:03.87,-2687,9755,-12886,-45,80,-43,88,-125,-131,-17,-22
,1497,2018/03/15 01:39:03.88,-2737,9736,-12996,-46,85,-46,88,-131,-134,-19,-21
,1498,2018/03/15 01:39:03.89,-2674,9674,-12938,-45,86,-46,89,-131,-135,-20,-21
,1499,2018/03/15 01:39:03.90,-2671,9706,-12865,-54,79,-57,76,-133,-133,-12,-9
,1500,2018/03/15 01:39:03.91,-2688,9647,-12940,-58,70,-55,73,-128,-128,-6,-9
,1501,2018/03/15 01:39:03.92,-2655,9659,-12921,-66,56,-64,59,-122,-123,5,2
,1502,2018/03/15 01:39:03.93,-2663,9526,-12884,-76,45,-87,38,-121,-125,15,24
,1503,2018/03/15 01:39:03.94,-2681,9620,-12894,-100,22,-104,20,-122,-124,39,42
,1504,2018/03/15 01:39:03.95,-2628,9567,-12870,-116,2,-122,-5,-118,-117,57,63
,1505,2018/03/15 01:39:03.96,-2671,9614,-12864,-132,-18,-137,-20,-114,-117,75,78
,1506,2018/03/15 01:39:03.97,-2677,9646,-12887,-148,-36,-145,-29,-112,-116,92,87
,1507,2018/03/15 01:39:03.98,-2730,9651,-12928,-148,-32,-144,-27,-116,-117,90,85
