// Data mode  : Standard
// Transmission speed  : 50Hz
// Accelerometer sensor's range  : 2g
// Gyroscope sensor's range  : 250dps
//
//ARTIFACT,NUM,DATE,ACC_X,ACC_Y,ACC_Z,EOG_L1,EOG_R1,EOG_L2,EOG_R2,EOG_H1,EOG_H2,EOG_V1,EOG_V2
,1,2018/03/15 01:38:33.83,-1174,9698,-13076,-54,78,-54,80,-132,-134,-12,-13
,2,2018/03/15 01:38:33.85,-1194,9632,-13011,-55,79,-58,82,-134,-140,-12,-12
,3,2018/03/15 01:38:33.87,-1096,9535,-13067,-60,77,-60,82,-137,-142,-8,-11
,4,2018/03/15 01:38:33.89,-1073,9262,-12855,-64,78,-55,91,-142,-146,-7,-18
,5,2018/03/15 01:38:33.91,-1175,10031,-13635,-51,90,-47,95,-141,-142,-19,-24
,6,2018/03/15 01:38:33.93,-1216,10156,-12977,-40,101,-45,106,-141,-151,-30,-30
,7,2018/03/15 01:38:33.95,-1255,9650,-12946,-38,114,-42,111,-152,-153,-38,-34
,8,2018/03/15 01:38:33.97,-1239,9297,-13043,-40,110,-41,111,-150,-152,-35,-35
,9,2018/03/15 01:38:33.99,-1143,9659,-13334,-44,105,-44,105,-149,-149,-30,-30
,10,2018/03/15 01:38:34.01,-1137,9638,-13261,-43,106,-47,103,-149,-150,-31,-28
,11,2018/03/15 01:38:34.03,-1182,9942,-13085,-40,113,-40,107,-153,-147,-36,-33
,12,2018/03/15 01:38:34.05,-1188,9770,-13101,-34,119,-33,119,-153,-152,-42,-43
,13,2018/03/15 01:38:34.07,-1106,9885,-13120,-38,118,-27,123,-156,-150,-40,-48
,14,2018/03/15 01:38:34.09,-1261,9662,-13209,-32,122,-26,132,-154,-158,-45,-53
,15,2018/03/15 01:38:34.11,-1219,9691,-13215,-27,133,-20,142,-160,-162,-53,-61
,16,2018/03/15 01:38:34.13,-1265,9615,-12965,-19,142,-28,132,-161,-160,-61,-52
,17,2018/03/15 01:38:34.15,-1234,9302,-12904,-33,128,-37,124,-161,-161,-47,-43
,18,2018/03/15 01:38:34.17,-1080,9230,-13137,-45,112,-46,113,-157,-159,-33,-33
,19,2018/03/15 01:38:34.19,-1111,9566,-13025,-50,104,-52,104,-154,-156,-27,-26
,20,2018/03/15 01:38:34.21,-1134,9631,-13247,-57,95,-75,80,-152,-155,-19,-2
,21,2018/03/15 01:38:34.23,-1256,10605,-13598,-61,87,-54,90,-148,-144,-13,-18
,22,2018/03/15 01:38:34.25,-1035,9385,-12349,-24,113,-12,119,-137,-131,-44,-53
,23,2018/03/15 01:38:34.27,-1225,9324,-13069,7,140,9,143,-133,-134,-73,-76
,24,2018/03/15 01:38:34.29,-1216,9164,-12922,-15,120,-27,106,-135,-133,-52,-39
,25,2018/03/15 01:38:34.31,-1196,9355,-13061,-32,98,-32,95,-130,-127,-33,-31
,26,2018/03/15 01:38:34.33,-1050,9541,-13225,-24,101,-27,99,-125,-126,-38,-36
,27,2018/03/15 01:38:34.35,-1125,9682,-13145,-29,102,-32,98,-131,-130,-36,-33
,28,2018/03/15 01:38:34.37,-1044,9723,-13220,-34,95,-29,102,-129,-131,-30,-36
,29,2018/03/15 01:38:34.39,-1036,9478,-13179,-35,103,-36,99,-138,-135,-34,-31
,30,2018/03/15 01:38:34.41,-1086,9370,-13341,-40,99,-38,97,-139,-135,-29,-29
,31,2018/03/15 01:38:34.43,-1127,9290,-14112,-27,106,-22,106,-133,-128,-39,-42
,32,2018/03/15 01:38:34.45,-1275,9666,-15247,-18,106,-5,112,-124,-117,-44,-53
,33,2018/03/15 01:38:34.47,-2136,10964,-13921,10,120,21,140,-110,-119,-65,-80
,34,2018/03/15 01:38:34.49,-2145,11540,-14020,10,129,-14,116,-119,-130,-69,-51
,35,2018/03/15 01:38:34.51,-2198,10376,-12479,-6,132,-25,117,-138,-142,-63,-46
,36,2018/03/15 01:38:34.53,-2136,10498,-12217,-54,84,-79,50,-138,-129,-15,14
,37,2018/03/15 01:38:34.55,-1858,10549,-11122,-102,28,-112,18,-130,-130,37,47
,38,2018/03/15 01:38:34.57,-1538,9908,-11200,-123,9,-110,29,-132,-139,57,40
,39,2018/03/15 01:38:34.59,-1105,9318,-11566,-108,26,-104,29,-134,-133,41,37
,40,2018/03/15 01:38:34.61,-824,8916,-12093,-97,38,-97,47,-135,-144,29,25
,41,2018/03/15 01:38:34.63,-658,8929,-12816,-88,60,-76,70,-148,-146,14,3
,42,2018/03/15 01:38:34.65,-657,9322,-13598,-76,75,-65,84,-151,-149,0,-9
,43,2018/03/15 01:38:34.67,-752,10148,-13900,-73,75,-54,92,-148,-146,-1,-19
,44,2018/03/15 01:38:34.69,-895,10479,-13777,-49,94,-35,109,-143,-144,-22,-37
,45,2018/03/15 01:38:34.71,-1030,10888,-13184,-14,124,-4,134,-138,-138,-55,-65
,46,2018/03/15 01:38:34.73,-988,11018,-12603,11,141,10,137,-130,-127,-76,-73
,47,2018/03/15 01:38:34.75,-937,10880,-12558,-5,120,-23,105,-125,-128,-57,-41
,48,2018/03/15 01:38:34.77,-697,10430,-12865,-43,87,-40,88,-130,-128,-22,-24
,49,2018/03/15 01:38:34.79,-786,10274,-12328,-35,86,-33,83,-121,-116,-25,-25
,50,2018/03/15 01:38:34.81,-692,9887,-12489,-29,83,-38,77,-112,-115,-27,-19
,51,2018/03/15 01:38:34.83,-611,9470,-13255,-38,82,-41,84,-120,-125,-22,-21
,52,2018/03/15 01:38:34.85,-594,9188,-13614,-45,80,-48,81,-125,-129,-17,-16
,53,2018/03/15 01:38:34.87,-452,9039,-15216,-52,80,-45,96,-132,-141,-14,-25
,54,2018/03/15 01:38:34.89,-1196,10838,-14656,-45,100,-42,98,-145,-140,-27,-28
,55,2018/03/15 01:38:34.91,-1872,12700,-11615,-30,111,-29,121,-141,-150,-40,-46
,56,2018/03/15 01:38:34.93,-1509,11584,-14258,-8,146,5,157,-154,-152,-69,-81
,57,2018/03/15 01:38:34.95,-1640,12418,-11904,-45,104,-109,32,-149,-141,-29,38
,58,2018/03/15 01:38:34.97,-1909,11401,-12217,-163,-23,-179,-42,-140,-137,93,110
,59,2018/03/15 01:38:34.99,-1634,10651,-11727,-172,-32,-155,-15,-140,-140,102,85
,60,2018/03/15 01:38:35.01,-1728,10012,-9295,-130,10,-119,27,-140,-146,60,46
,61,2018/03/15 01:38:35.03,-1596,8591,-9187,-101,47,-95,50,-148,-145,27,22
,62,2018/03/15 01:38:35.05,-1209,8106,-10748,-76,71,-47,99,-147,-146,2,-26
,63,2018/03/15 01:38:35.07,-925,8542,-12523,-24,120,-8,126,-144,-134,-48,-59
,64,2018/03/15 01:38:35.09,-1142,8988,-14975,9,133,11,128,-124,-117,-71,-69
,65,2018/03/15 01:38:35.11,-1361,8715,-15888,33,142,37,140,-109,-103,-87,-88
,66,2018/03/15 01:38:35.13,-1567,9164,-15038,37,142,35,141,-105,-106,-89,-88
,67,2018/03/15 01:38:35.15,-1791,9934,-13989,16,123,8,124,-107,-116,-69,-66
,68,2018/03/15 01:38:35.17,-1762,10055,-13448,-4,118,-9,118,-122,-127,-57,-54
,69,2018/03/15 01:38:35.19,-2008,9888,-12801,-5,121,-16,112,-126,-128,-58,-48
,70,2018/03/15 01:38:35.21,-1819,9574,-12450,-16,111,-24,99,-127,-123,-47,-37
,71,2018/03/15 01:38:35.23,-1694,8955,-12538,-28,102,-30,107,-130,-137,-37,-38
,72,2018/03/15 01:38:35.25,-1610,8706,-12993,-38,106,-25,125,-144,-150,-34,-50
,73,2018/03/15 01:38:35.27,-1728,8603,-13592,-18,136,-9,150,-154,-159,-59,-70
,74,2018/03/15 01:38:35.29,-1673,8228,-13440,0,160,-15,145,-160,-160,-80,-65
,75,2018/03/15 01:38:35.31,-1932,8381,-13906,-26,138,-38,127,-164,-165,-56,-44
,76,2018/03/15 01:38:35.33,-2051,8803,-13954,-41,120,-33,126,-161,-159,-39,-46
,77,2018/03/15 01:38:35.35,-2260,9550,-13247,-50,101,-48,96,-151,-144,-25,-24
,78,2018/03/15 01:38:35.37,-2447,9732,-13319,-52,83,-55,77,-135,-132,-15,-11
,79,2018/03/15 01:38:35.39,-2594,9547,-12688,-39,84,-16,80,-123,-96,-22,-32
,80,2018/03/15 01:38:35.41,-2256,9458,-12379,20,103,42,127,-83,-85,-61,-84
,81,2018/03/15 01:38:35.43,-1969,9139,-12656,37,141,31,146,-104,-115,-89,-88
,82,2018/03/15 01:38:35.45,-1943,8976,-12833,-4,116,-16,102,-120,-118,-56,-43
,83,2018/03/15 01:38:35.47,-1952,8941,-13160,-16,98,-11,96,-114,-107,-41,-42
,84,2018/03/15 01:38:35.49,-2022,9027,-13407,-5,103,-10,100,-108,-110,-49,-45
,85,2018/03/15 01:38:35.51,-2086,9172,-13392,-19,89,-18,87,-108,-105,-35,-34
,86,2018/03/15 01:38:35.53,-2042,9306,-13202,-26,72,-29,77,-98,-106,-23,-24
,87,2018/03/15 01:38:35.55,-1891,9356,-13198,-37,66,-46,57,-103,-103,-14,-5
,88,2018/03/15 01:38:35.57,-1957,9521,-13443,-43,60,-43,54,-103,-97,-8,-5
,89,2018/03/15 01:38:35.59,-2099,9382,-13498,-41,61,-54,53,-102,-107,-10,0
,90,2018/03/15 01:38:35.61,-2113,10100,-13818,-66,43,-61,54,-109,-115,11,3
,91,2018/03/15 01:38:35.63,-2260,10124,-13043,-56,59,-51,68,-115,-119,-1,-8
,92,2018/03/15 01:38:35.65,-2253,9636,-13194,-51,70,-56,69,-121,-125,-9,-6
,93,2018/03/15 01:38:35.67,-2364,9189,-13422,-56,75,-60,77,-131,-137,-9,-8
,94,2018/03/15 01:38:35.69,-2317,9330,-13349,-52,88,-52,89,-140,-141,-18,-18
,95,2018/03/15 01:38:35.71,-2186,9591,-13156,-49,94,-44,95,-143,-139,-22,-25
,96,2018/03/15 01:38:35.73,-2123,9502,-13170,-58,85,-53,93,-143,-146,-13,-20
,97,2018/03/15 01:38:35.75,-2155,9357,-13246,-54,93,-51,99,-147,-150,-19,-24
,98,2018/03/15 01:38:35.77,-2072,9292,-13212,-40,109,-41,112,-149,-153,-34,-35
,99,2018/03/15 01:38:35.79,-2009,9338,-13371,-33,121,-36,113,-154,-149,-44,-38
,100,2018/03/15 01:38:35.81,-1886,9336,-13178,-48,110,-44,123,-158,-167,-31,-39
,101,2018/03/15 01:38:35.83,-1815,9425,-13389,-41,124,-38,126,-165,-164,-41,-44
,102,2018/03/15 01:38:35.85,-1685,9459,-13272,-35,124,-56,106,-159,-162,-44,-25
,103,2018/03/15 01:38:35.87,-1364,8753,-12612,-53,108,-62,92,-161,-154,-27,-15
,104,2018/03/15 01:38:35.89,-1536,9024,-13521,-58,95,-65,90,-153,-155,-18,-12
,105,2018/03/15 01:38:35.91,-1622,9306,-13435,-71,77,-81,62,-148,-143,-3,9
,106,2018/03/15 01:38:35.93,-1641,9619,-13346,-78,60,-65,69,-138,-134,9,-2
,107,2018/03/15 01:38:35.95,-1759,9890,-13208,-63,74,-64,62,-137,-126,-5,1
,108,2018/03/15 01:38:35.97,-1694,9905,-13499,-50,67,-44,70,-117,-114,-8,-13
,109,2018/03/15 01:38:35.99,-1483,9732,-13308,-28,78,1,105,-106,-104,-25,-53
,110,2018/03/15 01:38:36.01,-1606,9731,-12952,11,124,20,139,-113,-119,-67,-79
,111,2018/03/15 01:38:36.03,-1698,9247,-13233,11,126,-2,119,-115,-121,-68,-58
,112,2018/03/15 01:38:36.05,-1727,9341,-13117,-4,121,-7,116,-125,-123,-58,-54
,113,2018/03/15 01:38:36.07,-1743,9462,-13165,-6,113,-14,98,-119,-112,-53,-42
,114,2018/03/15 01:38:36.09,-1753,9652,-13254,-22,94,-24,99,-116,-123,-36,-37
,115,2018/03/15 01:38:36.11,-1693,9559,-13232,-30,90,-32,89,-120,-121,-30,-28
,116,2018/03/15 01:38:36.13,-1634,9490,-13133,-44,82,-56,83,-126,-139,-19,-13
,117,2018/03/15 01:38:36.15,-1808,9356,-13227,-68,90,-80,88,-158,-168,-11,-4
,118,2018/03/15 01:38:36.17,-1727,9462,-13102,-80,94,-85,93,-174,-178,-7,-4
,119,2018/03/15 01:38:36.19,-1965,9633,-13567,-79,94,-69,94,-173,-163,-7,-12
,120,2018/03/15 01:38:36.21,-1845,9873,-12976,-73,89,-68,96,-162,-164,-8,-14
,121,2018/03/15 01:38:36.23,-1664,9320,-13059,-73,88,-70,88,-161,-158,-7,-9
,122,2018/03/15 01:38:36.25,-1617,9360,-13279,-72,86,-75,74,-158,-149,-7,0
,123,2018/03/15 01:38:36.27,-1618,9413,-13199,-80,74,-69,82,-154,-151,3,-6
,124,2018/03/15 01:38:36.29,-1481,9387,-13268,-69,78,-64,91,-147,-155,-4,-13
,125,2018/03/15 01:38:36.31,-1409,9561,-13187,-68,84,-63,80,-152,-143,-8,-8
,126,2018/03/15 01:38:36.33,-1378,9668,-13205,-70,71,-61,80,-141,-141,0,-9
,127,2018/03/15 01:38:36.35,-1345,9586,-13243,-49,89,-51,94,-138,-145,-20,-21
,128,2018/03/15 01:38:36.37,-1319,9623,-13284,-51,99,-47,92,-150,-139,-24,-22
,129,2018/03/15 01:38:36.39,-1304,9602,-13371,-47,92,-41,97,-139,-138,-22,-28
,130,2018/03/15 01:38:36.41,-1352,9651,-13369,-44,87,-40,99,-131,-139,-21,-29
,131,2018/03/15 01:38:36.43,-1437,9599,-13343,-32,104,-29,96,-136,-125,-36,-33
,132,2018/03/15 01:38:36.45,-1293,9559,-13316,-34,101,-37,98,-135,-135,-33,-30
,133,2018/03/15 01:38:36.47,-1358,9600,-13287,-31,98,-32,100,-129,-132,-33,-34
,134,2018/03/15 01:38:36.49,-1336,9437,-13264,-34,97,-32,98,-131,-130,-31,-33
,135,2018/03/15 01:38:36.51,-1232,9677,-13291,-45,90,-43,91,-135,-134,-22,-24
,136,2018/03/15 01:38:36.53,-1185,9170,-13255,-39,93,-36,89,-132,-125,-27,-26
,137,2018/03/15 01:38:36.55,-1347,9878,-13293,-10,115,6,125,-125,-119,-52,-65
,138,2018/03/15 01:38:36.57,-1289,9462,-13384,10,127,4,135,-117,-131,-68,-69
,139,2018/03/15 01:38:36.59,-1274,9344,-13315,-10,135,-19,133,-145,-152,-62,-57
,140,2018/03/15 01:38:36.61,-1219,9483,-13240,-30,127,-28,129,-157,-157,-48,-50
,141,2018/03/15 01:38:36.63,-1281,9406,-13230,-26,124,-34,120,-150,-154,-49,-43
,142,2018/03/15 01:38:36.65,-1267,9390,-13286,-24,128,-37,113,-152,-150,-52,-38
,143,2018/03/15 01:38:36.67,-1319,9336,-13038,-43,109,-46,101,-152,-147,-33,-27
,144,2018/03/15 01:38:36.69,-1231,8720,-13033,-36,109,-40,113,-145,-153,-36,-36
,145,2018/03/15 01:38:36.71,-1346,9473,-13430,-60,100,-62,88,-160,-150,-20,-13
,146,2018/03/15 01:38:36.73,-1417,9618,-13555,-56,91,-62,77,-147,-139,-17,-7
,147,2018/03/15 01:38:36.75,-1221,9978,-13427,-63,80,-79,60,-143,-139,-8,9
,148,2018/03/15 01:38:36.77,-1605,9856,-13354,-78,50,-62,57,-128,-119,14,2
,149,2018/03/15 01:38:36.79,-1532,9843,-13232,-61,50,-40,74,-111,-114,5,-17
,150,2018/03/15 01:38:36.81,-1146,9217,-12888,-15,104,2,120,-119,-118,-44,-61
,151,2018/03/15 01:38:36.83,-1290,9050,-13210,17,140,11,130,-123,-119,-78,-70
,152,2018/03/15 01:38:36.85,-1330,9238,-13182,-2,113,-16,100,-115,-116,-55,-42
,153,2018/03/15 01:38:36.87,-1328,9354,-13404,-14,107,-2,118,-121,-120,-46,-58
,154,2018/03/15 01:38:36.89,-1204,9570,-13301,-5,117,-6,115,-122,-121,-56,-54
,155,2018/03/15 01:38:36.91,-1251,9624,-13220,-11,102,-21,95,-113,-116,-45,-37
,156,2018/03/15 01:38:36.93,-1272,9629,-13255,-23,92,-31,79,-115,-110,-34,-24
,157,2018/03/15 01:38:36.95,-1212,9385,-13242,-35,86,-39,89,-121,-128,-25,-25
,158,2018/03/15 01:38:36.97,-1243,9315,-13260,-43,85,-44,88,-128,-132,-21,-22
,159,2018/03/15 01:38:36.99,-986,8546,-12971,-49,83,-41,86,-132,-127,-17,-22
,160,2018/03/15 01:38:37.01,-1159,10820,-13749,-46,82,-56,79,-128,-135,-18,-11
,161,2018/03/15 01:38:37.03,-1152,9757,-12785,-49,95,-45,97,-144,-142,-23,-26
,162,2018/03/15 01:38:37.05,-1265,9448,-13305,-37,106,-26,114,-143,-140,-34,-44
,163,2018/03/15 01:38:37.07,-1394,9120,-13314,-34,98,-29,104,-132,-133,-32,-37
,164,2018/03/15 01:38:37.09,-1329,9496,-13357,-35,91,-17,108,-126,-125,-28,-45
,165,2018/03/15 01:38:37.11,-1293,9494,-13238,-19,110,-23,114,-129,-137,-45,-45
,166,2018/03/15 01:38:37.13,-1356,9683,-13518,-16,120,-22,113,-136,-135,-52,-45
,167,2018/03/15 01:38:37.15,-1328,9515,-13159,-22,111,-26,111,-133,-137,-44,-42
,168,2018/03/15 01:38:37.17,-1376,9544,-13324,-40,104,-39,113,-144,-152,-32,-37
,169,2018/03/15 01:38:37.19,-1277,9599,-13277,-40,111,-40,115,-151,-155,-35,-37
,170,2018/03/15 01:38:37.21,-1325,9368,-13251,-38,119,-42,113,-157,-155,-40,-35
,171,2018/03/15 01:38:37.23,-1329,9356,-13148,-42,117,-44,118,-159,-162,-37,-37
,172,2018/03/15 01:38:37.25,-1341,9350,-13188,-42,118,-41,116,-160,-157,-38,-37
,173,2018/03/15 01:38:37.27,-1395,9252,-13229,-44,112,-36,122,-156,-158,-34,-43
,174,2018/03/15 01:38:37.29,-1468,9450,-13133,-30,125,-22,128,-155,-150,-47,-53
,175,2018/03/15 01:38:37.31,-1392,9495,-13116,-9,136,-6,130,-145,-136,-63,-62
,176,2018/03/15 01:38:37.33,-1356,9437,-13203,0,132,0,129,-132,-129,-66,-64
,177,2018/03/15 01:38:37.35,-1370,9598,-13436,-1,126,-4,123,-127,-127,-62,-59
,178,2018/03/15 01:38:37.37,-1322,9747,-13259,-15,114,-16,118,-129,-134,-49,-51
,179,2018/03/15 01:38:37.39,-1427,9933,-13179,-24,104,-33,96,-128,-129,-40,-31
,180,2018/03/15 01:38:37.41,-1498,9326,-13239,-39,89,-42,78,-128,-120,-25,-18
,181,2018/03/15 01:38:37.43,-1472,9552,-13433,-39,81,-47,74,-120,-121,-21,-13
,182,2018/03/15 01:38:37.45,-1521,9265,-13226,-43,76,-31,84,-119,-115,-16,-26
,183,2018/03/15 01:38:37.47,-1648,9718,-13257,-32,87,-46,74,-119,-120,-27,-14
,184,2018/03/15 01:38:37.49,-1343,9589,-13142,-30,82,-22,90,-112,-112,-26,-34
,185,2018/03/15 01:38:37.51,-1421,9436,-13063,14,138,13,139,-124,-126,-76,-76
,186,2018/03/15 01:38:37.53,-1400,9643,-13141,11,138,-3,125,-127,-128,-74,-61
,187,2018/03/15 01:38:37.55,-1351,9514,-13083,-5,116,-5,112,-121,-117,-55,-53
,188,2018/03/15 01:38:37.57,-1389,9395,-13266,-13,106,-14,109,-119,-123,-46,-47
,189,2018/03/15 01:38:37.59,-1329,9418,-13265,-15,109,-17,99,-124,-116,-47,-41
,190,2018/03/15 01:38:37.61,-1255,9444,-13231,-20,98,-32,84,-118,-116,-39,-26
,191,2018/03/15 01:38:37.63,-1217,9411,-13216,-43,78,-56,75,-121,-131,-17,-9
,192,2018/03/15 01:38:37.65,-1211,9128,-13180,-63,72,-60,78,-135,-138,-4,-9
,193,2018/03/15 01:38:37.67,-1240,9896,-13702,-66,66,-64,67,-132,-131,0,-1
,194,2018/03/15 01:38:37.69,-1158,10270,-13096,-62,68,-61,67,-130,-128,-3,-3
,195,2018/03/15 01:38:37.71,-1350,9595,-13127,-57,78,-52,81,-135,-133,-10,-14
,196,2018/03/15 01:38:37.73,-1328,9196,-13283,-48,87,-46,90,-135,-136,-19,-22
,197,2018/03/15 01:38:37.75,-1292,9509,-13413,-48,90,-40,101,-138,-141,-21,-30
,198,2018/03/15 01:38:37.77,-1321,9476,-13242,-38,95,-34,101,-133,-135,-28,-33
,199,2018/03/15 01:38:37.79,-1306,9567,-13184,-26,112,-20,117,-138,-137,-43,-48
,200,2018/03/15 01:38:37.81,-1275,9558,-13407,-6,126,-9,126,-132,-135,-60,-58
,201,2018/03/15 01:38:37.83,-1289,9559,-13325,-8,131,-8,127,-139,-135,-61,-59
,202,2018/03/15 01:38:37.85,-1307,9524,-13336,-19,112,-17,124,-131,-141,-46,-53
,203,2018/03/15 01:38:37.87,-1286,9409,-13363,-16,128,-10,132,-144,-142,-56,-61
,204,2018/03/15 01:38:37.89,-1285,9425,-13206,-31,125,-47,119,-156,-166,-47,-36
,205,2018/03/15 01:38:37.91,-1272,9485,-13199,-59,106,-57,106,-165,-163,-23,-24
,206,2018/03/15 01:38:37.93,-1239,9421,-13232,-58,101,-61,102,-159,-163,-21,-20
,207,2018/03/15 01:38:37.95,-1249,9322,-13437,-63,97,-53,108,-160,-161,-17,-27
,208,2018/03/15 01:38:37.97,-1173,9360,-13293,-53,109,-47,105,-162,-152,-28,-29
,209,2018/03/15 01:38:37.99,-1154,9372,-13282,-43,107,-44,104,-150,-148,-32,-30
,210,2018/03/15 01:38:38.01,-1078,9507,-13388,-36,111,-38,109,-147,-147,-37,-35
,211,2018/03/15 01:38:38.03,-1148,9511,-13276,-47,101,-47,100,-148,-147,-27,-26
,212,2018/03/15 01:38:38.05,-1128,9458,-13355,-51,92,-53,88,-143,-141,-20,-17
,213,2018/03/15 01:38:38.07,-1189,9660,-13217,-59,79,-58,72,-138,-130,-10,-7
,214,2018/03/15 01:38:38.09,-1320,9345,-13391,-51,76,-60,68,-127,-128,-12,-4
,215,2018/03/15 01:38:38.11,-1410,9540,-13599,-47,78,-46,78,-125,-124,-15,-16
,216,2018/03/15 01:38:38.13,-1305,9324,-12820,-52,69,-41,88,-121,-129,-8,-23
,217,2018/03/15 01:38:38.15,-1001,9316,-13110,-19,109,10,134,-128,-124,-45,-72
,218,2018/03/15 01:38:38.17,-1225,9362,-13471,18,151,6,136,-133,-130,-84,-71
,219,2018/03/15 01:38:38.19,-1167,9398,-13236,-2,125,-11,111,-127,-122,-61,-50
,220,2018/03/15 01:38:38.21,-1202,9525,-13310,-5,116,-5,117,-121,-122,-55,-56
,221,2018/03/15 01:38:38.23,-1226,9641,-13235,-7,113,-8,116,-120,-124,-53,-54
,222,2018/03/15 01:38:38.25,-1288,9502,-13251,-12,109,-6,106,-121,-112,-48,-50
,223,2018/03/15 01:38:38.27,-1274,9356,-13237,-7,104,-15,99,-111,-114,-48,-42
,224,2018/03/15 01:38:38.29,-1233,9292,-13192,-9,113,-30,90,-122,-120,-52,-30
,225,2018/03/15 01:38:38.31,-1369,9129,-13357,-38,86,-44,78,-124,-122,-24,-17
,226,2018/03/15 01:38:38.33,-1526,9240,-13604,-39,90,-35,92,-129,-127,-25,-28
,227,2018/03/15 01:38:38.35,-1499,9744,-13080,-38,85,-22,98,-123,-120,-23,-38
,228,2018/03/15 01:38:38.37,-1558,9417,-13018,-16,107,-24,104,-123,-128,-45,-40
,229,2018/03/15 01:38:38.39,-1467,9312,-13351,-21,109,-26,101,-130,-127,-44,-37
,230,2018/03/15 01:38:38.41,-1420,9316,-13325,-30,97,-28,101,-127,-129,-33,-36
,231,2018/03/15 01:38:38.43,-1288,9501,-13384,-26,97,-21,100,-123,-121,-35,-39
,232,2018/03/15 01:38:38.45,-1215,9612,-13217,-27,99,-28,102,-126,-130,-36,-37
,233,2018/03/15 01:38:38.47,-1279,9525,-13432,-24,108,-30,98,-132,-128,-42,-34
,234,2018/03/15 01:38:38.49,-1374,9361,-13346,-25,104,-24,103,-129,-127,-39,-39
,235,2018/03/15 01:38:38.51,-1269,9242,-13123,-23,102,-24,108,-125,-132,-39,-42
,236,2018/03/15 01:38:38.53,-1361,8884,-13170,-31,100,-36,99,-131,-135,-34,-31
,237,2018/03/15 01:38:38.55,-1314,9329,-13308,-42,90,-48,90,-132,-138,-24,-21
,238,2018/03/15 01:38:38.57,-1251,9374,-13309,-47,96,-54,87,-143,-141,-24,-16
,239,2018/03/15 01:38:38.59,-1253,9411,-13347,-50,86,-50,94,-136,-144,-18,-22
,240,2018/03/15 01:38:38.61,-1174,9381,-13363,-46,106,-32,119,-152,-151,-30,-43
,241,2018/03/15 01:38:38.63,-1239,9570,-13438,-27,119,-18,130,-146,-148,-46,-56
,242,2018/03/15 01:38:38.65,-1235,9530,-13406,-12,134,-10,141,-146,-151,-61,-65
,243,2018/03/15 01:38:38.67,-1285,9574,-13373,-3,150,-3,148,-153,-151,-73,-72
,244,2018/03/15 01:38:38.69,-1299,9398,-13329,-6,139,-6,130,-145,-136,-66,-62
,245,2018/03/15 01:38:38.71,-1402,9447,-13335,-20,117,-22,115,-137,-137,-48,-46
,246,2018/03/15 01:38:38.73,-1340,9469,-13355,-38,93,-27,104,-131,-131,-27,-38
,247,2018/03/15 01:38:38.75,-1179,9166,-12873,-31,102,-44,98,-133,-142,-35,-27
,248,2018/03/15 01:38:38.77,-1279,9141,-13214,-44,100,-50,82,-144,-132,-28,-16
,249,2018/03/15 01:38:38.79,-1367,9554,-13512,-56,82,-56,88,-138,-144,-13,-16
,250,2018/03/15 01:38:38.81,-1362,9710,-13494,-58,78,-53,77,-136,-130,-10,-12
,251,2018/03/15 01:38:38.83,-1304,9723,-13475,-60,75,-53,76,-135,-129,-7,-11
,252,2018/03/15 01:38:38.85,-1529,9512,-13419,-46,80,-59,67,-126,-126,-17,-4
,253,2018/03/15 01:38:38.87,-1397,9453,-13418,-63,67,-53,72,-130,-125,-2,-9
,254,2018/03/15 01:38:38.89,-1257,9433,-13224,-32,83,-12,110,-115,-122,-25,-49
,255,2018/03/15 01:38:38.91,-1128,9350,-13267,8,133,18,139,-125,-121,-70,-78
,256,2018/03/15 01:38:38.93,-1154,9309,-13098,8,123,-4,113,-115,-117,-65,-54
,257,2018/03/15 01:38:38.95,-1256,9261,-13294,-5,126,-4,130,-131,-134,-60,-63
,258,2018/03/15 01:38:38.97,-1146,9341,-13357,0,129,-6,118,-129,-124,-64,-56
,259,2018/03/15 01:38:38.99,-1200,9452,-13237,-7,114,-14,110,-121,-124,-53,-48
,260,2018/03/15 01:38:39.01,-1214,9481,-13218,-25,98,-29,100,-123,-129,-36,-35
,261,2018/03/15 01:38:39.03,-1171,9493,-13274,-37,94,-40,92,-131,-132,-28,-26
,262,2018/03/15 01:38:39.05,-1214,9422,-13335,-36,89,-45,79,-125,-124,-26,-17
,263,2018/03/15 01:38:39.07,-1243,9408,-13334,-50,77,-52,74,-127,-126,-13,-11
,264,2018/03/15 01:38:39.09,-1122,9511,-13220,-58,66,-63,65,-124,-128,-4,-1
,265,2018/03/15 01:38:39.11,-1288,10139,-13707,-50,76,-56,72,-126,-128,-13,-8
,266,2018/03/15 01:38:39.13,-1354,9554,-12999,-59,64,-74,50,-123,-124,-2,12
,267,2018/03/15 01:38:39.15,-1391,9215,-13105,-64,70,-63,69,-134,-132,-3,-3
,268,2018/03/15 01:38:39.17,-1387,9129,-13325,-64,65,-64,65,-129,-129,0,0
,269,2018/03/15 01:38:39.19,-1310,9242,-13234,-67,63,-58,70,-130,-128,2,-6
,270,2018/03/15 01:38:39.21,-1246,9523,-13387,-57,69,-54,71,-126,-125,-6,-8
,271,2018/03/15 01:38:39.23,-1240,9579,-13380,-56,71,-57,67,-127,-124,-7,-5
,272,2018/03/15 01:38:39.25,-1313,9538,-13308,-47,78,-42,84,-125,-126,-15,-21
,273,2018/03/15 01:38:39.27,-1309,9492,-13319,-38,95,-42,96,-133,-138,-28,-27
,274,2018/03/15 01:38:39.29,-1399,9379,-13295,-42,87,-36,92,-129,-128,-22,-28
,275,2018/03/15 01:38:39.31,-1347,9288,-13352,-34,88,-29,90,-122,-119,-27,-30
,276,2018/03/15 01:38:39.33,-1350,9318,-13271,-34,89,-44,87,-123,-131,-27,-21
,277,2018/03/15 01:38:39.35,-1344,9439,-13193,-36,90,-33,89,-126,-122,-27,-28
,278,2018/03/15 01:38:39.37,-1394,9416,-13200,-28,91,-22,90,-119,-112,-31,-34
,279,2018/03/15 01:38:39.39,-1305,9478,-13232,-28,91,-25,98,-119,-123,-31,-36
,280,2018/03/15 01:38:39.41,-1254,9509,-13275,-26,94,-28,89,-120,-117,-34,-30
,281,2018/03/15 01:38:39.43,-1265,9386,-13286,-32,89,-37,82,-121,-119,-28,-22
,282,2018/03/15 01:38:39.45,-1240,9467,-13308,-25,90,-18,96,-115,-114,-32,-39
,283,2018/03/15 01:38:39.47,-1305,9640,-13363,-8,110,4,123,-118,-119,-51,-63
,284,2018/03/15 01:38:39.49,-1331,9442,-13338,1,128,6,139,-127,-133,-64,-72
,285,2018/03/15 01:38:39.51,-1334,9398,-13300,1,139,3,145,-138,-142,-70,-74
,286,2018/03/15 01:38:39.53,-1367,9392,-13178,-6,135,-10,130,-141,-140,-64,-60
,287,2018/03/15 01:38:39.55,-1290,9455,-13429,-9,122,7,131,-131,-124,-56,-69
,288,2018/03/15 01:38:39.57,-1280,9425,-13229,20,126,27,121,-106,-94,-73,-74
,289,2018/03/15 01:38:39.59,-1381,9430,-13507,32,120,25,115,-88,-90,-76,-70
,290,2018/03/15 01:38:39.61,-1163,8946,-13036,15,106,5,103,-91,-98,-60,-54
,291,2018/03/15 01:38:39.63,-1208,8792,-12986,2,105,-13,97,-103,-110,-53,-42
,292,2018/03/15 01:38:39.65,-1275,9569,-13978,-10,108,-16,102,-118,-118,-49,-43
,293,2018/03/15 01:38:39.67,-1203,9514,-13237,-18,91,-17,96,-109,-113,-36,-39
,294,2018/03/15 01:38:39.69,-1260,9908,-13303,-20,86,-17,86,-106,-103,-33,-34
,295,2018/03/15 01:38:39.71,-1324,9672,-13542,-28,80,-27,78,-108,-105,-26,-25
,296,2018/03/15 01:38:39.73,-1480,9741,-13328,-20,90,-12,93,-110,-105,-35,-40
,297,2018/03/15 01:38:39.75,-1552,9457,-13110,-2,100,-15,82,-102,-97,-49,-33
,298,2018/03/15 01:38:39.77,-1367,9434,-12979,7,100,27,125,-93,-98,-53,-76
,299,2018/03/15 01:38:39.79,-1545,9248,-12945,21,120,22,123,-99,-101,-70,-72
,300,2018/03/15 01:38:39.81,-1508,9506,-13195,10,116,7,109,-106,-102,-63,-58
,301,2018/03/15 01:38:39.83,-1462,9560,-13184,18,122,19,121,-104,-102,-70,-70
,302,2018/03/15 01:38:39.85,-1350,9584,-13274,16,118,4,116,-102,-112,-67,-60
,303,2018/03/15 01:38:39.87,-1285,9555,-13087,-2,105,1,105,-107,-104,-51,-53
,304,2018/03/15 01:38:39.89,-1313,9601,-13345,-7,96,-11,99,-103,-110,-44,-44
,305,2018/03/15 01:38:39.91,-1268,9689,-13353,-17,98,-20,95,-115,-115,-40,-37
,306,2018/03/15 01:38:39.93,-1296,9578,-13263,-14,103,-33,85,-117,-118,-44,-26
,307,2018/03/15 01:38:39.95,-1344,9483,-13192,-36,85,-38,80,-121,-118,-24,-21
,308,2018/03/15 01:38:39.97,-1393,9400,-13325,-41,88,-44,93,-129,-137,-23,-24
,309,2018/03/15 01:38:39.99,-1352,9442,-13215,-59,88,-64,96,-147,-160,-14,-16
,310,2018/03/15 01:38:40.01,-1372,9394,-13232,-73,98,-87,93,-171,-180,-12,-3
,311,2018/03/15 01:38:40.03,-1285,9342,-13306,-85,103,-87,102,-188,-189,-9,-7
,312,2018/03/15 01:38:40.05,-1240,9375,-13285,-88,102,-85,95,-190,-180,-7,-5
,313,2018/03/15 01:38:40.07,-1165,9435,-13340,-81,90,-71,99,-171,-170,-4,-14
,314,2018/03/15 01:38:40.09,-1172,9574,-13479,-70,95,-69,92,-165,-161,-12,-11
,315,2018/03/15 01:38:40.11,-1207,9347,-13286,-66,92,-64,90,-158,-154,-13,-13
,316,2018/03/15 01:38:40.13,-1243,9420,-13368,-53,98,-56,95,-151,-151,-22,-19
,317,2018/03/15 01:38:40.15,-1284,9292,-13248,-56,93,-48,100,-149,-148,-18,-26
,318,2018/03/15 01:38:40.17,-1321,9251,-13411,-43,99,-34,106,-142,-140,-28,-36
,319,2018/03/15 01:38:40.19,-1362,9286,-13263,-28,108,-30,107,-136,-137,-40,-38
,320,2018/03/15 01:38:40.21,-1407,9437,-13356,-30,110,-42,101,-140,-143,-40,-29
,321,2018/03/15 01:38:40.23,-1392,9415,-13277,-38,103,-32,102,-141,-134,-32,-35
,322,2018/03/15 01:38:40.25,-1351,9520,-13290,-36,96,-34,96,-132,-130,-30,-31
,323,2018/03/15 01:38:40.27,-1458,9521,-13210,-42,86,-44,86,-128,-130,-22,-21
,324,2018/03/15 01:38:40.29,-1544,9328,-13238,-50,79,-56,78,-129,-134,-14,-11
,325,2018/03/15 01:38:40.31,-1504,9244,-13240,-49,86,-51,84,-135,-135,-18,-16
,326,2018/03/15 01:38:40.33,-1486,9246,-13297,-56,80,-48,87,-136,-135,-12,-19
,327,2018/03/15 01:38:40.35,-1443,9289,-13257,-56,72,-44,79,-128,-123,-8,-17
,328,2018/03/15 01:38:40.37,-1479,9400,-13305,-50,65,-51,72,-115,-123,-7,-10
,329,2018/03/15 01:38:40.39,-1383,9312,-13360,-47,75,-53,70,-122,-123,-14,-8
,330,2018/03/15 01:38:40.41,-1499,9429,-13163,-41,83,-43,77,-124,-120,-21,-17
,331,2018/03/15 01:38:40.43,-1364,9426,-13286,-36,83,-34,90,-119,-124,-23,-28
,332,2018/03/15 01:38:40.45,-1394,9531,-13457,-40,82,-44,82,-122,-126,-21,-19
,333,2018/03/15 01:38:40.47,-1283,9512,-13436,-47,83,-43,94,-130,-137,-18,-25
,334,2018/03/15 01:38:40.49,-1269,9470,-13340,-40,99,-34,97,-139,-131,-29,-31
,335,2018/03/15 01:38:40.51,-1277,9522,-13400,-28,102,-33,91,-130,-124,-37,-29
,336,2018/03/15 01:38:40.53,-1264,9322,-13285,-38,88,-37,100,-126,-137,-25,-31
,337,2018/03/15 01:38:40.55,-1319,9596,-13377,-39,100,-33,107,-139,-140,-30,-37
