// Data mode  : Standard
// Transmission speed  : 50Hz
// Accelerometer sensor's range  : 2g
// Gyroscope sensor's range  : 250dps
//
//ARTIFACT,NUM,DATE,ACC_X,ACC_Y,ACC_Z,EOG_L1,EOG_R1,EOG_L2,EOG_R2,EOG_H1,EOG_H2,EOG_V1,EOG_V2
,1,2018/03/15 01:36:17.01,-1240,9481,-13391,-154,-6,-182,-58,-148,-124,80,120
,2,2018/03/15 01:36:17.03,-1309,9965,-13273,-137,-20,-96,12,-117,-108,78,42
,3,2018/03/15 01:36:17.05,-1443,10207,-13681,168,300,433,588,-132,-155,-234,-510
,4,2018/03/15 01:36:17.07,-1488,10224,-13788,519,668,426,567,-149,-141,-593,-496
,5,2018/03/15 01:36:17.09,-1599,10269,-13754,142,256,-30,67,-114,-97,-199,-18
,6,2018/03/15 01:36:17.11,-1566,9947,-13362,-159,-70,-292,-219,-89,-73,114,255
,7,2018/03/15 01:36:17.13,-1497,10132,-13256,-382,-317,-487,-439,-65,-48,349,463
,8,2018/03/15 01:36:17.15,-1546,10479,-13306,-449,-413,-356,-318,-36,-38,431,337
,9,2018/03/15 01:36:17.17,-1773,10469,-13711,-292,-258,-184,-139,-34,-45,275,161
,10,2018/03/15 01:36:17.19,-2053,10414,-13999,-177,-125,-134,-74,-52,-60,151,104
,11,2018/03/15 01:36:17.21,-2244,10414,-14120,-90,-15,-86,0,-75,-86,52,43
,12,2018/03/15 01:36:17.23,-2326,10332,-13902,-6,92,-36,72,-98,-108,-43,-18
,13,2018/03/15 01:36:17.25,-2342,10040,-13479,-10,99,19,128,-109,-109,-44,-73
,14,2018/03/15 01:36:17.27,-2245,9713,-13487,-8,103,58,171,-111,-113,-47,-114
,15,2018/03/15 01:36:17.29,-2212,8927,-13735,33,155,32,151,-122,-119,-94,-91
,16,2018/03/15 01:36:17.31,-2044,9971,-13949,42,168,-2,117,-126,-119,-105,-57
,17,2018/03/15 01:36:17.33,-1987,8959,-13736,56,185,39,180,-129,-141,-120,-109
,18,2018/03/15 01:36:17.35,-1791,8775,-13989,54,198,84,235,-144,-151,-126,-159
,19,2018/03/15 01:36:17.37,-1717,8364,-13765,19,167,49,201,-148,-152,-93,-125
,20,2018/03/15 01:36:17.39,-1630,8114,-13659,-11,147,-43,121,-158,-164,-68,-39
,21,2018/03/15 01:36:17.41,-1583,7995,-13410,-21,155,-68,112,-176,-180,-67,-22
,22,2018/03/15 01:36:17.43,-1759,8075,-13225,-17,162,-58,119,-179,-177,-72,-30
,23,2018/03/15 01:36:17.45,-1908,8183,-13483,-84,98,-35,146,-182,-181,-7,-55
,24,2018/03/15 01:36:17.47,-2163,8166,-13269,-63,107,-4,171,-170,-175,-22,-83
,25,2018/03/15 01:36:17.49,-2176,8593,-13160,-3,169,5,180,-172,-175,-83,-92
,26,2018/03/15 01:36:17.51,-2310,8723,-13205,71,267,36,241,-196,-205,-169,-138
,27,2018/03/15 01:36:17.53,-2347,9017,-13269,90,300,104,312,-210,-208,-195,-208
,28,2018/03/15 01:36:17.55,-2147,9086,-13123,91,297,134,353,-206,-219,-194,-243
,29,2018/03/15 01:36:17.57,-1986,9010,-13378,81,288,134,354,-207,-220,-184,-244
,30,2018/03/15 01:36:17.59,-1739,8882,-13564,167,387,158,357,-220,-199,-277,-257
,31,2018/03/15 01:36:17.61,-1690,8862,-13780,201,398,150,329,-197,-179,-299,-239
,32,2018/03/15 01:36:17.63,-1563,8213,-14027,185,374,184,390,-189,-206,-279,-287
,33,2018/03/15 01:36:17.65,-1626,7758,-14000,151,353,202,417,-202,-215,-252,-309
,34,2018/03/15 01:36:17.67,-1562,7894,-14085,167,373,206,415,-206,-209,-270,-310
,35,2018/03/15 01:36:17.69,-1769,8013,-13851,196,403,137,334,-207,-197,-299,-235
,36,2018/03/15 01:36:17.71,-1797,7735,-13598,159,349,68,245,-190,-177,-254,-156
,37,2018/03/15 01:36:17.73,-1912,7754,-13543,16,177,-78,66,-161,-144,-96,6
,38,2018/03/15 01:36:17.75,-2034,7950,-13360,-189,-74,-174,-70,-115,-104,131,122
,39,2018/03/15 01:36:17.77,-2194,8415,-13727,-201,-100,-139,-40,-101,-99,150,89
,40,2018/03/15 01:36:17.79,-2542,8229,-14157,-78,25,-66,35,-103,-101,26,15
,41,2018/03/15 01:36:17.81,-2535,8371,-14231,9,111,-35,59,-102,-94,-60,-12
,42,2018/03/15 01:36:17.83,-2616,9273,-14256,-2,94,50,147,-96,-97,-46,-98
,43,2018/03/15 01:36:17.85,-2652,9460,-14089,51,144,152,256,-93,-104,-97,-204
,44,2018/03/15 01:36:17.87,-2815,9448,-14071,153,271,165,292,-118,-127,-212,-228
,45,2018/03/15 01:36:17.89,-2930,9446,-14063,146,275,22,144,-129,-122,-210,-83
,46,2018/03/15 01:36:17.91,-2914,9355,-13905,-11,112,-99,11,-123,-110,-50,44
,47,2018/03/15 01:36:17.93,-2777,9234,-13613,-131,-27,-128,-21,-104,-107,79,74
,48,2018/03/15 01:36:17.95,-2693,9002,-13335,-188,-92,-178,-74,-96,-104,140,126
,49,2018/03/15 01:36:17.97,-2589,8788,-13481,-242,-140,-281,-187,-102,-94,191,234
,50,2018/03/15 01:36:17.99,-2701,8338,-13732,-276,-178,-328,-240,-98,-88,227,284
,51,2018/03/15 01:36:18.01,-2453,8619,-13736,-319,-242,-383,-317,-77,-66,280,350
,52,2018/03/15 01:36:18.03,-2593,8060,-12792,-452,-401,-464,-415,-51,-49,426,439
,53,2018/03/15 01:36:18.05,-2598,7911,-13016,-462,-418,-336,-281,-44,-55,440,308
,54,2018/03/15 01:36:18.07,-2584,8178,-13444,-272,-198,-218,-133,-74,-85,235,175
,55,2018/03/15 01:36:18.09,-2633,8580,-13686,-142,-48,-176,-88,-94,-88,95,132
,56,2018/03/15 01:36:18.11,-2738,9037,-13830,-116,-23,-97,2,-93,-99,69,47
,57,2018/03/15 01:36:18.13,-2967,9170,-13590,-87,14,-17,95,-101,-112,36,-39
,58,2018/03/15 01:36:18.15,-3052,9468,-13410,-55,62,-3,117,-117,-120,-3,-57
,59,2018/03/15 01:36:18.17,-3128,9273,-13044,-3,114,-25,90,-117,-115,-55,-32
,60,2018/03/15 01:36:18.19,-3167,9354,-12949,21,148,-28,93,-127,-121,-84,-32
,61,2018/03/15 01:36:18.21,-3186,9019,-13097,5,141,11,152,-136,-141,-73,-81
,62,2018/03/15 01:36:18.23,-3259,9090,-13139,-8,122,43,186,-130,-143,-57,-114
,63,2018/03/15 01:36:18.25,-3362,9223,-13231,-8,135,10,156,-143,-146,-63,-83
,64,2018/03/15 01:36:18.27,-3450,9609,-13188,-17,132,-87,49,-149,-136,-57,19
,65,2018/03/15 01:36:18.29,-3399,9837,-13244,-79,61,-127,6,-140,-133,9,60
,66,2018/03/15 01:36:18.31,-3336,9984,-13196,-79,46,-72,52,-125,-124,16,10
,67,2018/03/15 01:36:18.33,-3190,10089,-13226,-142,-29,-176,-53,-113,-123,85,114
,68,2018/03/15 01:36:18.35,-3130,9732,-13085,-309,-185,-355,-234,-124,-121,247,294
,69,2018/03/15 01:36:18.37,-2836,9431,-12678,-370,-247,-398,-282,-123,-116,308,340
,70,2018/03/15 01:36:18.39,-2592,9164,-12307,-318,-201,-303,-186,-117,-117,259,244
,71,2018/03/15 01:36:18.41,-2460,8963,-12378,-238,-121,-155,-32,-117,-123,179,93
,72,2018/03/15 01:36:18.43,-2281,8744,-12622,-112,17,37,184,-129,-147,47,-110
,73,2018/03/15 01:36:18.45,-2074,8562,-12886,108,260,181,346,-152,-165,-184,-263
,74,2018/03/15 01:36:18.47,-1861,8407,-13036,256,435,238,409,-179,-171,-345,-323
,75,2018/03/15 01:36:18.49,-1684,8462,-12984,286,470,211,390,-184,-179,-378,-300
,76,2018/03/15 01:36:18.51,-1548,8541,-13163,147,309,151,320,-162,-169,-228,-235
,77,2018/03/15 01:36:18.53,-1329,9020,-13243,116,271,155,314,-155,-159,-193,-234
,78,2018/03/15 01:36:18.55,-1143,9524,-13587,118,273,84,235,-155,-151,-195,-159
,79,2018/03/15 01:36:18.57,-1079,10241,-13671,70,234,-18,136,-164,-154,-152,-59
,80,2018/03/15 01:36:18.59,-1234,10691,-13888,-9,138,-38,111,-147,-149,-64,-36
,81,2018/03/15 01:36:18.61,-1417,10673,-14065,-58,88,-30,121,-146,-151,-15,-45
,82,2018/03/15 01:36:18.63,-1595,10539,-13797,-86,60,-40,108,-146,-148,13,-34
,83,2018/03/15 01:36:18.65,-1801,10283,-13470,-45,103,-58,84,-148,-142,-29,-13
,84,2018/03/15 01:36:18.67,-1750,9784,-13307,-16,131,-54,89,-147,-143,-57,-17
,85,2018/03/15 01:36:18.69,-1796,9460,-13116,19,167,52,201,-148,-149,-93,-126
,86,2018/03/15 01:36:18.71,-1764,9323,-12858,74,224,180,341,-150,-161,-149,-260
,87,2018/03/15 01:36:18.73,-1776,9116,-13059,196,360,223,394,-164,-171,-278,-308
,88,2018/03/15 01:36:18.75,-1826,8528,-13169,131,295,-5,145,-164,-150,-213,-70
,89,2018/03/15 01:36:18.77,-1750,8992,-13035,-41,102,-118,16,-143,-134,-30,51
,90,2018/03/15 01:36:18.79,-2016,9152,-13272,-87,55,-70,74,-142,-144,16,-2
,91,2018/03/15 01:36:18.81,-2084,9153,-13290,-85,49,-28,117,-134,-145,18,-44
,92,2018/03/15 01:36:18.83,-1977,9199,-13455,-72,70,-52,92,-142,-144,1,-20
,93,2018/03/15 01:36:18.85,-2077,9506,-13334,-45,100,-82,54,-145,-136,-27,14
,94,2018/03/15 01:36:18.87,-2017,9506,-12774,-46,92,-93,33,-138,-126,-23,30
,95,2018/03/15 01:36:18.89,-2021,9682,-12900,-78,45,-66,56,-123,-122,16,5
,96,2018/03/15 01:36:18.91,-2016,10132,-12906,-108,14,-59,63,-122,-122,47,-2
,97,2018/03/15 01:36:18.93,-2116,10247,-13053,-95,21,-75,38,-116,-113,37,18
,98,2018/03/15 01:36:18.95,-2022,10201,-12955,-67,52,-99,18,-119,-117,7,40
,99,2018/03/15 01:36:18.97,-1963,10198,-13030,-52,67,-86,29,-119,-115,-7,28
,100,2018/03/15 01:36:18.99,-1942,10179,-12990,-70,41,-44,59,-111,-103,14,-7
,101,2018/03/15 01:36:19.01,-1919,10089,-12980,-90,-5,-42,42,-85,-84,47,0
,102,2018/03/15 01:36:19.03,-1937,9980,-12976,-62,13,-55,21,-75,-76,24,17
,103,2018/03/15 01:36:19.05,-1980,9717,-13009,-34,53,-85,2,-87,-87,-9,41
,104,2018/03/15 01:36:19.07,-1907,9618,-12878,-57,44,-87,12,-101,-99,6,37
,105,2018/03/15 01:36:19.09,-1981,9566,-12926,-75,16,-28,72,-91,-100,29,-22
,106,2018/03/15 01:36:19.11,-1927,9620,-12790,-64,32,-20,85,-96,-105,16,-32
,107,2018/03/15 01:36:19.13,-2015,9680,-13076,-46,70,-36,83,-116,-119,-12,-23
,108,2018/03/15 01:36:19.15,-2084,9642,-13048,13,130,-40,69,-117,-109,-71,-14
,109,2018/03/15 01:36:19.17,-2218,9671,-12929,-8,105,-34,71,-113,-105,-48,-18
,110,2018/03/15 01:36:19.19,-2382,9712,-12957,-49,59,-13,108,-108,-121,-5,-47
,111,2018/03/15 01:36:19.21,-2406,9918,-13040,-58,60,-25,105,-118,-130,-1,-40
,112,2018/03/15 01:36:19.23,-2423,10007,-12995,-44,89,-56,73,-133,-129,-22,-8
,113,2018/03/15 01:36:19.25,-2549,9927,-12901,-9,133,-58,81,-142,-139,-62,-11
,114,2018/03/15 01:36:19.27,-2631,9901,-12994,-26,112,-50,90,-138,-140,-43,-20
,115,2018/03/15 01:36:19.29,-2732,9798,-12961,-76,56,-44,91,-132,-135,10,-23
,116,2018/03/15 01:36:19.31,-2806,9719,-12947,-92,42,-66,83,-134,-149,25,-8
,117,2018/03/15 01:36:19.33,-2821,9585,-12893,-64,76,-92,43,-140,-135,-6,24
,118,2018/03/15 01:36:19.35,-2969,9472,-12846,-40,94,-84,40,-134,-124,-27,22
,119,2018/03/15 01:36:19.37,-3009,9227,-12843,-50,77,-53,74,-127,-127,-13,-10
,120,2018/03/15 01:36:19.39,-3136,9093,-12853,-83,42,-48,91,-125,-139,20,-21
,121,2018/03/15 01:36:19.41,-3090,9023,-12774,-92,42,-53,70,-134,-123,25,-8
,122,2018/03/15 01:36:19.43,-3078,9049,-12737,-48,78,-80,45,-126,-125,-15,17
,123,2018/03/15 01:36:19.45,-3089,9274,-12778,-28,111,-74,58,-139,-132,-41,8
,124,2018/03/15 01:36:19.47,-3021,9370,-12833,-46,84,-32,97,-130,-129,-19,-32
,125,2018/03/15 01:36:19.49,-2977,9534,-12905,-67,55,-12,121,-122,-133,6,-54
,126,2018/03/15 01:36:19.51,-2934,9550,-12933,-44,83,-22,107,-127,-129,-19,-42
,127,2018/03/15 01:36:19.53,-2903,9654,-12939,5,138,-35,92,-133,-127,-71,-28
,128,2018/03/15 01:36:19.55,-2853,9764,-12945,5,140,-39,93,-135,-132,-72,-27
,129,2018/03/15 01:36:19.57,-2844,9779,-12925,-35,97,-9,130,-132,-139,-31,-60
,130,2018/03/15 01:36:19.59,-2845,9824,-12948,-43,96,6,161,-139,-155,-26,-83
,131,2018/03/15 01:36:19.61,-2772,9698,-12929,-33,126,-31,134,-159,-165,-46,-51
,132,2018/03/15 01:36:19.63,-2781,9682,-12827,-8,170,-55,122,-178,-177,-81,-33
,133,2018/03/15 01:36:19.65,-2814,9749,-12883,-12,175,-44,135,-187,-179,-81,-45
,134,2018/03/15 01:36:19.67,-2784,9712,-12878,-45,127,-18,155,-172,-173,-41,-68
,135,2018/03/15 01:36:19.69,-2795,9687,-12892,-66,99,-22,152,-165,-174,-16,-65
,136,2018/03/15 01:36:19.71,-2732,9587,-12824,-57,122,-71,111,-179,-182,-32,-20
,137,2018/03/15 01:36:19.73,-2668,9684,-12857,-52,144,-89,95,-196,-184,-46,-3
,138,2018/03/15 01:36:19.75,-2705,9727,-12889,-46,137,-60,115,-183,-175,-45,-27
,139,2018/03/15 01:36:19.77,-2622,9640,-12953,-66,103,-24,147,-169,-171,-18,-61
,140,2018/03/15 01:36:19.79,-2652,9603,-12876,-76,84,-39,124,-160,-163,-4,-42
,141,2018/03/15 01:36:19.81,-2839,9686,-12942,-60,100,-78,79,-160,-157,-20,0
,142,2018/03/15 01:36:19.83,-2753,9706,-12804,-37,126,-79,69,-163,-148,-44,5
,143,2018/03/15 01:36:19.85,-2800,9644,-12899,-40,106,-53,96,-146,-149,-33,-21
,144,2018/03/15 01:36:19.87,-2761,9594,-12957,-75,74,-33,123,-149,-156,0,-45
,145,2018/03/15 01:36:19.89,-2850,9663,-12900,-76,71,-45,107,-147,-152,2,-31
,146,2018/03/15 01:36:19.91,-2834,9750,-12923,-57,99,-78,72,-156,-150,-21,3
,147,2018/03/15 01:36:19.93,-2832,9665,-13009,-28,122,-77,64,-150,-141,-47,6
,148,2018/03/15 01:36:19.95,-2903,9629,-12915,-50,92,-50,92,-142,-142,-21,-21
,149,2018/03/15 01:36:19.97,-2951,9584,-12908,-79,59,-42,115,-138,-157,10,-36
,150,2018/03/15 01:36:19.99,-3023,9644,-12816,-83,63,-46,88,-146,-134,10,-21
,151,2018/03/15 01:36:20.01,-2942,9577,-12796,-34,97,-70,55,-131,-125,-31,7
,152,2018/03/15 01:36:20.03,-3039,9574,-12855,-27,105,-71,54,-132,-125,-39,8
,153,2018/03/15 01:36:20.05,-2936,9602,-13024,-56,71,-46,81,-127,-127,-7,-17
,154,2018/03/15 01:36:20.07,-2917,9543,-12819,-82,40,-46,83,-122,-129,21,-18
,155,2018/03/15 01:36:20.09,-2822,9652,-12840,-86,37,-59,60,-123,-119,24,0
,156,2018/03/15 01:36:20.11,-2899,9589,-12806,-31,85,-73,40,-116,-113,-27,16
,157,2018/03/15 01:36:20.13,-2885,9666,-12796,-33,96,-77,54,-129,-131,-31,11
,158,2018/03/15 01:36:20.15,-2818,9728,-12779,-56,66,-32,94,-122,-126,-5,-31
,159,2018/03/15 01:36:20.17,-2819,9775,-12834,-77,41,-44,83,-118,-127,18,-19
,160,2018/03/15 01:36:20.19,-2790,9779,-12882,-74,51,-58,62,-125,-120,11,-2
,161,2018/03/15 01:36:20.21,-2734,9782,-12858,-22,104,-67,54,-126,-121,-41,6
,162,2018/03/15 01:36:20.23,-2740,9728,-12854,-32,96,-66,55,-128,-121,-32,5
,163,2018/03/15 01:36:20.25,-2827,9701,-12913,-59,57,-26,101,-116,-127,1,-37
,164,2018/03/15 01:36:20.27,-2767,9659,-12878,-70,53,-22,109,-123,-131,8,-43
,165,2018/03/15 01:36:20.29,-2724,9734,-12849,-43,82,-48,74,-125,-122,-19,-13
,166,2018/03/15 01:36:20.31,-2834,9597,-12799,-14,113,-51,64,-127,-115,-49,-6
,167,2018/03/15 01:36:20.33,-2797,9643,-12816,2,114,-19,88,-112,-107,-58,-34
,168,2018/03/15 01:36:20.35,-2807,9678,-12853,-34,70,-3,113,-104,-116,-18,-55
,169,2018/03/15 01:36:20.37,-2783,9625,-12818,-64,50,-38,85,-114,-123,7,-23
,170,2018/03/15 01:36:20.39,-2871,9690,-12867,-55,65,-58,55,-120,-113,-5,1
,171,2018/03/15 01:36:20.41,-2814,9600,-12877,-8,110,-52,61,-118,-113,-51,-4
,172,2018/03/15 01:36:20.43,-2852,9750,-12812,-16,104,-31,86,-120,-117,-44,-27
,173,2018/03/15 01:36:20.45,-2895,9566,-12940,-54,57,-10,107,-111,-117,-1,-48
,174,2018/03/15 01:36:20.47,-2939,9614,-12818,-58,44,-23,77,-102,-100,7,-27
,175,2018/03/15 01:36:20.49,-2921,9775,-12723,-25,75,-42,54,-100,-96,-25,-6
,176,2018/03/15 01:36:20.51,-2960,9772,-12653,15,118,-17,80,-103,-97,-66,-31
,177,2018/03/15 01:36:20.53,-2964,9829,-12873,12,115,2,110,-103,-108,-63,-56
,178,2018/03/15 01:36:20.55,-2927,9865,-12878,-44,62,6,116,-106,-110,-9,-61
,179,2018/03/15 01:36:20.57,-2966,9982,-12753,-36,70,-6,107,-106,-113,-17,-50
,180,2018/03/15 01:36:20.59,-2843,9879,-12795,-4,111,-42,65,-115,-107,-53,-11
,181,2018/03/15 01:36:20.61,-2807,9786,-12792,-1,111,-39,67,-112,-106,-55,-14
,182,2018/03/15 01:36:20.63,-2849,9742,-12845,-18,90,-6,108,-108,-114,-36,-51
,183,2018/03/15 01:36:20.65,-2873,9737,-12862,-35,71,20,129,-106,-109,-18,-74
,184,2018/03/15 01:36:20.67,-2755,9710,-12762,-26,74,-18,80,-100,-98,-24,-31
,185,2018/03/15 01:36:20.69,-2850,9669,-12808,-7,93,-38,55,-100,-93,-43,-8
,186,2018/03/15 01:36:20.71,-2807,9680,-12894,18,121,-21,82,-103,-103,-69,-30
,187,2018/03/15 01:36:20.73,-2894,9649,-12793,-12,94,-4,109,-106,-113,-41,-52
,188,2018/03/15 01:36:20.75,-2836,9613,-12841,-56,52,-8,110,-108,-118,2,-51
,189,2018/03/15 01:36:20.77,-2795,9645,-12716,-33,80,-23,80,-113,-103,-23,-28
,190,2018/03/15 01:36:20.79,-2850,9668,-12785,-1,106,-55,47,-107,-102,-52,4
,191,2018/03/15 01:36:20.81,-2677,9666,-12920,-20,91,-48,60,-111,-108,-35,-6
,192,2018/03/15 01:36:20.83,-2792,9703,-12916,-45,62,-6,106,-107,-112,-8,-50
,193,2018/03/15 01:36:20.85,-2737,9569,-12836,-40,63,13,125,-103,-112,-11,-69
,194,2018/03/15 01:36:20.87,-2791,9765,-12965,-10,98,-23,80,-108,-103,-44,-28
,195,2018/03/15 01:36:20.89,-2748,9797,-12818,5,116,-44,59,-111,-103,-60,-7
,196,2018/03/15 01:36:20.91,-2770,9763,-12878,-4,109,-24,90,-113,-114,-52,-33
,197,2018/03/15 01:36:20.93,-2797,9683,-12884,-36,76,-2,119,-112,-121,-20,-58
,198,2018/03/15 01:36:20.95,-2782,9630,-12799,-48,64,-16,94,-112,-110,-8,-39
,199,2018/03/15 01:36:20.97,-2832,9680,-12836,-22,77,-39,52,-99,-91,-27,-6
,200,2018/03/15 01:36:20.99,-2886,9650,-12810,4,112,-52,52,-108,-104,-58,0
,201,2018/03/15 01:36:21.01,-2880,9718,-12880,-15,94,-19,88,-109,-107,-39,-34
,202,2018/03/15 01:36:21.03,-2811,9729,-12791,-36,69,2,118,-105,-116,-16,-60
,203,2018/03/15 01:36:21.05,-2823,9675,-12842,-46,65,-14,102,-111,-116,-9,-44
,204,2018/03/15 01:36:21.07,-2884,9750,-12816,-18,98,-44,67,-116,-111,-40,-11
,205,2018/03/15 01:36:21.09,-2861,9645,-12950,0,121,-45,68,-121,-113,-60,-11
,206,2018/03/15 01:36:21.11,-2853,9565,-12931,-16,96,-18,96,-112,-114,-40,-39
,207,2018/03/15 01:36:21.13,-2864,9691,-12693,-49,57,-1,111,-106,-112,-4,-55
,208,2018/03/15 01:36:21.15,-2806,9742,-12776,-35,70,-12,99,-105,-111,-17,-43
,209,2018/03/15 01:36:21.17,-2817,9754,-12847,-13,98,-51,51,-111,-102,-42,0
,210,2018/03/15 01:36:21.19,-2732,9815,-12831,-1,111,-36,77,-112,-113,-55,-20
,211,2018/03/15 01:36:21.21,-2770,9676,-12679,-8,110,8,127,-118,-119,-51,-67
,212,2018/03/15 01:36:21.23,-2850,9798,-12819,-35,73,-1,117,-108,-118,-19,-58
,213,2018/03/15 01:36:21.25,-2892,9795,-12823,-40,76,-20,98,-116,-118,-18,-39
,214,2018/03/15 01:36:21.27,-2777,9695,-12825,-2,116,-42,67,-118,-109,-57,-12
,215,2018/03/15 01:36:21.29,-2797,9768,-12799,4,121,-29,82,-117,-111,-62,-26
,216,2018/03/15 01:36:21.31,-2772,9773,-12805,-24,84,-8,105,-108,-113,-30,-48
,217,2018/03/15 01:36:21.33,-2768,9879,-12818,-52,53,-3,104,-105,-107,0,-50
,218,2018/03/15 01:36:21.35,-2829,9869,-12813,-36,65,-27,69,-101,-96,-14,-21
,219,2018/03/15 01:36:21.37,-2764,9837,-12713,-16,84,-59,36,-100,-95,-34,11
,220,2018/03/15 01:36:21.39,-2820,9798,-12766,-23,82,-48,57,-105,-105,-29,-4
,221,2018/03/15 01:36:21.41,-2775,9753,-12788,-43,56,-6,103,-99,-109,-6,-48
,222,2018/03/15 01:36:21.43,-2700,9749,-12790,-52,53,-14,98,-105,-112,0,-42
,223,2018/03/15 01:36:21.45,-2705,9685,-12836,-40,66,-38,65,-106,-103,-13,-13
,224,2018/03/15 01:36:21.47,-2690,9752,-12831,0,110,-49,54,-110,-103,-55,-2
,225,2018/03/15 01:36:21.49,-2791,9810,-12818,-9,92,-24,72,-101,-96,-41,-24
,226,2018/03/15 01:36:21.51,-2725,9865,-12836,-35,62,-4,106,-97,-110,-13,-51
,227,2018/03/15 01:36:21.53,-2774,9857,-12843,-54,54,-7,105,-108,-112,0,-49
,228,2018/03/15 01:36:21.55,-2740,9887,-12807,-12,99,-24,72,-111,-96,-43,-24
,229,2018/03/15 01:36:21.57,-2686,9708,-12747,17,120,-32,76,-103,-108,-68,-22
,230,2018/03/15 01:36:21.59,-2768,9755,-12808,0,116,-12,101,-116,-113,-58,-44
,231,2018/03/15 01:36:21.61,-2816,9761,-12703,-40,70,-1,119,-110,-120,-15,-59
,232,2018/03/15 01:36:21.63,-2767,9766,-12755,-44,64,-12,93,-108,-105,-10,-40
,233,2018/03/15 01:36:21.65,-2774,9742,-12797,-12,91,-42,62,-103,-104,-39,-10
,234,2018/03/15 01:36:21.67,-2722,9703,-12764,-8,112,-55,58,-120,-113,-52,-1
,235,2018/03/15 01:36:21.69,-2749,9796,-12758,-24,89,-11,101,-113,-112,-32,-45
,236,2018/03/15 01:36:21.71,-2747,9844,-12762,-33,77,16,136,-110,-120,-22,-76
,237,2018/03/15 01:36:21.73,-2787,9872,-12767,-27,85,-8,102,-112,-110,-29,-47
,238,2018/03/15 01:36:21.75,-2762,9876,-12701,4,114,-31,78,-110,-109,-59,-23
,239,2018/03/15 01:36:21.77,-2770,9766,-12846,20,137,-36,77,-117,-113,-78,-20
,240,2018/03/15 01:36:21.79,-2849,9750,-12952,-14,107,-3,121,-121,-124,-46,-59
,241,2018/03/15 01:36:21.81,-2743,9730,-12627,-35,74,-1,113,-109,-114,-19,-56
,242,2018/03/15 01:36:21.83,-2744,9791,-12676,-54,58,-53,56,-112,-109,-2,-1
,243,2018/03/15 01:36:21.85,-2793,9747,-12765,-32,82,-64,46,-114,-110,-25,9
,244,2018/03/15 01:36:21.87,-2826,9797,-12796,-15,107,-62,55,-122,-117,-46,3
,245,2018/03/15 01:36:21.89,-2842,9861,-12784,-78,34,-78,38,-112,-116,22,20
,246,2018/03/15 01:36:21.91,-2718,9888,-12767,-121,-7,-68,62,-114,-130,64,3
,247,2018/03/15 01:36:21.93,-2759,9888,-12800,-82,43,-62,59,-125,-121,19,1
,248,2018/03/15 01:36:21.95,-2713,9881,-12842,-18,104,-52,62,-122,-114,-43,-5
,249,2018/03/15 01:36:21.97,-2774,9858,-12830,-6,122,-33,96,-128,-129,-58,-31
,250,2018/03/15 01:36:21.99,-2721,9782,-12741,-38,89,-10,122,-127,-132,-25,-56
,251,2018/03/15 01:36:22.01,-2858,9763,-12772,-53,68,-10,113,-121,-123,-7,-51
,252,2018/03/15 01:36:22.03,-2790,9709,-12739,-34,87,-40,78,-121,-118,-26,-19
,253,2018/03/15 01:36:22.05,-2871,9712,-12745,-2,122,-41,74,-124,-115,-60,-16
,254,2018/03/15 01:36:22.07,-2879,9654,-12777,4,124,-10,110,-120,-120,-64,-50
,255,2018/03/15 01:36:22.09,-2764,9767,-12664,-28,88,4,126,-116,-122,-30,-65
,256,2018/03/15 01:36:22.11,-2886,9804,-12766,-40,73,-7,117,-113,-124,-16,-55
,257,2018/03/15 01:36:22.13,-2770,9813,-12808,-21,108,-42,84,-129,-126,-43,-21
,258,2018/03/15 01:36:22.15,-2771,9877,-12806,-9,119,-48,69,-128,-117,-55,-10
,259,2018/03/15 01:36:22.17,-2722,9850,-12813,-20,100,-26,95,-120,-121,-40,-34
,260,2018/03/15 01:36:22.19,-2825,9823,-12826,-49,63,19,130,-112,-111,-7,-74
,261,2018/03/15 01:36:22.21,-2799,9828,-12783,-23,76,-10,96,-99,-106,-26,-43
,262,2018/03/15 01:36:22.23,-2837,9790,-12798,-27,80,-58,51,-107,-109,-26,3
,263,2018/03/15 01:36:22.25,-2907,9773,-12807,-8,109,-40,67,-117,-107,-50,-13
,264,2018/03/15 01:36:22.27,-2859,9816,-12787,-16,91,-14,102,-107,-116,-37,-44
,265,2018/03/15 01:36:22.29,-2782,9802,-12821,-45,68,2,118,-113,-116,-11,-60
,266,2018/03/15 01:36:22.31,-2802,9748,-12713,-32,72,-17,90,-104,-107,-20,-36
,267,2018/03/15 01:36:22.33,-2795,9714,-12756,-13,95,-42,60,-108,-102,-41,-9
,268,2018/03/15 01:36:22.35,-2750,9691,-12765,1,109,-40,66,-108,-106,-55,-13
,269,2018/03/15 01:36:22.37,-2770,9717,-12787,-12,94,1,115,-106,-114,-41,-58
,270,2018/03/15 01:36:22.39,-2756,9811,-12802,-38,67,1,111,-105,-110,-14,-56
,271,2018/03/15 01:36:22.41,-2780,9768,-12728,-46,69,-46,86,-115,-132,-11,-20
,272,2018/03/15 01:36:22.43,-2758,9812,-12758,-35,103,-79,41,-138,-120,-34,19
,273,2018/03/15 01:36:22.45,-2840,9734,-12743,-36,76,-77,22,-112,-99,-20,27
,274,2018/03/15 01:36:22.47,-2793,9765,-12852,-80,22,-54,58,-102,-112,29,-2
,275,2018/03/15 01:36:22.49,-2829,9853,-12748,-77,25,-14,91,-102,-105,26,-38
,276,2018/03/15 01:36:22.51,-2881,9780,-12796,-42,63,-48,63,-105,-111,-10,-7
,277,2018/03/15 01:36:22.53,-2801,9837,-12656,-36,81,-79,29,-117,-108,-22,25
,278,2018/03/15 01:36:22.55,-2678,9761,-12876,-30,83,-55,56,-113,-111,-26,0
,279,2018/03/15 01:36:22.57,-2815,9695,-12915,-48,65,-29,100,-113,-129,-8,-35
,280,2018/03/15 01:36:22.59,-2927,9967,-12719,-72,46,-36,81,-118,-117,13,-22
,281,2018/03/15 01:36:22.61,-2859,10005,-12600,-42,78,-46,76,-120,-122,-18,-15
,282,2018/03/15 01:36:22.63,-2904,9929,-12680,-18,120,-68,59,-138,-127,-51,4
,283,2018/03/15 01:36:22.65,-2896,9946,-12896,-31,92,-35,74,-123,-109,-30,-19
,284,2018/03/15 01:36:22.67,-2884,9993,-12874,-30,71,8,118,-101,-110,-20,-63
,285,2018/03/15 01:36:22.69,-2859,9962,-12795,-43,66,-9,107,-109,-116,-11,-49
,286,2018/03/15 01:36:22.71,-2824,9997,-12831,-21,95,-39,75,-116,-114,-37,-18
,287,2018/03/15 01:36:22.73,-2712,9697,-12820,-12,117,-68,56,-129,-124,-52,6
,288,2018/03/15 01:36:22.75,-2871,9764,-12831,-44,82,-39,76,-126,-115,-19,-18
,289,2018/03/15 01:36:22.77,-2821,9657,-12673,-49,55,-4,108,-104,-112,-3,-52
,290,2018/03/15 01:36:22.79,-2888,9643,-12715,-37,63,-11,94,-100,-105,-13,-41
,291,2018/03/15 01:36:22.81,-2931,9650,-12745,-24,90,-53,60,-114,-113,-33,-3
,292,2018/03/15 01:36:22.83,-2943,9640,-12764,-8,117,-50,71,-125,-121,-54,-10
,293,2018/03/15 01:36:22.85,-2851,9674,-12768,-25,96,-23,94,-121,-117,-35,-35
,294,2018/03/15 01:36:22.87,-2890,9738,-12818,-61,50,-22,98,-111,-120,5,-38
,295,2018/03/15 01:36:22.89,-2852,9719,-12826,-61,58,-40,83,-119,-123,1,-21
,296,2018/03/15 01:36:22.91,-2826,9750,-12826,-30,98,-51,71,-128,-122,-34,-10
,297,2018/03/15 01:36:22.93,-2833,9773,-12831,-3,126,-42,82,-129,-124,-61,-20
,298,2018/03/15 01:36:22.95,-2900,9804,-12887,-29,96,-14,117,-125,-131,-33,-51
,299,2018/03/15 01:36:22.97,-2832,9784,-12859,-57,72,-16,121,-129,-137,-7,-52
,300,2018/03/15 01:36:22.99,-2858,9759,-12757,-59,73,-36,95,-132,-131,-7,-29
,301,2018/03/15 01:36:23.01,-2903,9752,-12805,-16,111,-38,80,-127,-118,-47,-21
,302,2018/03/15 01:36:23.03,-2918,9735,-12756,-1,124,-48,80,-125,-128,-61,-16
,303,2018/03/15 01:36:23.05,-2888,9749,-12771,-44,82,-24,107,-126,-131,-19,-41
,304,2018/03/15 01:36:23.07,-2865,9780,-12760,-73,55,-22,109,-128,-131,9,-43
,305,2018/03/15 01:36:23.09,-2810,9794,-12815,-46,81,-47,81,-127,-128,-17,-17
,306,2018/03/15 01:36:23.11,-2794,9724,-12780,-24,112,-56,66,-136,-122,-44,-5
,307,2018/03/15 01:36:23.13,-2755,9728,-12794,-15,114,-44,85,-129,-129,-49,-20
,308,2018/03/15 01:36:23.15,-2806,9711,-12826,-52,72,-25,101,-124,-126,-10,-38
,309,2018/03/15 01:36:23.17,-2848,9780,-12799,-68,56,-30,106,-124,-136,6,-38
,310,2018/03/15 01:36:23.19,-2802,9778,-12797,-43,90,-45,80,-133,-125,-23,-17
,311,2018/03/15 01:36:23.21,-2856,9761,-12774,-13,117,-60,61,-130,-121,-52,0
,312,2018/03/15 01:36:23.23,-2925,9778,-12863,-31,93,-51,74,-124,-125,-31,-11
,313,2018/03/15 01:36:23.25,-2873,9832,-12621,-60,64,-16,115,-124,-131,-2,-49
,314,2018/03/15 01:36:23.27,-2859,9621,-12742,-49,75,-18,112,-124,-130,-13,-47
,315,2018/03/15 01:36:23.29,-2890,9599,-12861,-34,98,-49,79,-132,-128,-32,-15
,316,2018/03/15 01:36:23.31,-2806,9887,-12871,-12,120,-48,78,-132,-126,-54,-15
,317,2018/03/15 01:36:23.33,-2762,9820,-12907,-16,115,-26,105,-131,-131,-49,-39
,318,2018/03/15 01:36:23.35,-2763,9808,-12743,-52,74,-20,117,-126,-137,-11,-48
,319,2018/03/15 01:36:23.37,-2812,9807,-12688,-63,73,-43,98,-136,-141,-5,-27
,320,2018/03/15 01:36:23.39,-2900,9698,-12723,-42,93,-73,54,-135,-127,-25,9
,321,2018/03/15 01:36:23.41,-2848,9614,-12795,-30,106,-75,54,-136,-129,-38,10
,322,2018/03/15 01:36:23.43,-2818,9712,-12895,-45,94,-40,106,-139,-146,-24,-33
,323,2018/03/15 01:36:23.45,-2850,9705,-12740,-60,81,-12,134,-141,-146,-10,-61
,324,2018/03/15 01:36:23.47,-2878,9787,-12836,-50,89,-40,99,-139,-139,-19,-29
,325,2018/03/15 01:36:23.49,-2793,9834,-12803,-39,103,-72,62,-142,-134,-32,5
,326,2018/03/15 01:36:23.51,-2735,9848,-12835,-33,107,-68,64,-140,-132,-37,2
,327,2018/03/15 01:36:23.53,-2785,9781,-12770,-56,76,-43,94,-132,-137,-10,-25
,328,2018/03/15 01:36:23.55,-2795,9727,-12799,-74,58,-27,111,-132,-138,8,-42
,329,2018/03/15 01:36:23.57,-2829,9675,-12836,-51,82,-40,93,-133,-133,-15,-26
,330,2018/03/15 01:36:23.59,-2883,9691,-12763,-34,100,-66,66,-134,-132,-33,0
,331,2018/03/15 01:36:23.61,-2836,9601,-12802,26,186,-83,88,-160,-171,-106,-2
,332,2018/03/15 01:36:23.63,-2846,9761,-12793,-293,-132,-233,-67,-161,-166,212,150
,333,2018/03/15 01:36:23.65,-2827,9906,-12748,22,183,352,515,-161,-163,-102,-433
,334,2018/03/15 01:36:23.67,-2832,9902,-12892,367,518,248,392,-151,-144,-442,-320
,335,2018/03/15 01:36:23.69,-2920,9979,-12953,237,390,176,319,-153,-143,-313,-247
,336,2018/03/15 01:36:23.71,-2803,9899,-12867,236,382,200,340,-146,-140,-309,-270
,337,2018/03/15 01:36:23.73,-2836,9851,-12787,176,311,221,362,-135,-141,-243,-291
,338,2018/03/15 01:36:23.75,-2777,9751,-12814,156,290,191,337,-134,-146,-223,-264
,339,2018/03/15 01:36:23.77,-2826,9731,-12835,155,305,130,275,-150,-145,-230,-202
,340,2018/03/15 01:36:23.79,-2750,9774,-12816,181,331,125,262,-150,-137,-256,-193
,341,2018/03/15 01:36:23.81,-2844,9716,-12856,147,290,122,264,-143,-142,-218,-193
,342,2018/03/15 01:36:23.83,-2735,9729,-12813,78,217,129,284,-139,-155,-147,-206
,343,2018/03/15 01:36:23.85,-2823,9714,-12785,65,212,110,264,-147,-154,-138,-187
,344,2018/03/15 01:36:23.87,-2743,9659,-12779,96,248,54,198,-152,-144,-172,-126
,345,2018/03/15 01:36:23.89,-2796,9525,-12726,90,243,16,164,-153,-148,-166,-90
,346,2018/03/15 01:36:23.91,-2830,9684,-12778,40,192,34,184,-152,-150,-116,-109
,347,2018/03/15 01:36:23.93,-2790,9600,-12839,1,141,60,204,-140,-144,-71,-132
,348,2018/03/15 01:36:23.95,-2732,9623,-12820,4,140,29,167,-136,-138,-72,-98
,349,2018/03/15 01:36:23.97,-2733,9613,-12862,22,161,-25,107,-139,-132,-91,-41
,350,2018/03/15 01:36:23.99,-2718,9747,-12878,33,169,-16,112,-136,-128,-101,-48
,351,2018/03/15 01:36:24.01,-2726,9736,-12813,8,142,13,153,-134,-140,-75,-83
,352,2018/03/15 01:36:24.03,-2737,9891,-12900,-37,99,-1,150,-136,-151,-31,-74
,353,2018/03/15 01:36:24.05,-2734,9789,-12843,-60,91,-42,109,-151,-151,-15,-33
,354,2018/03/15 01:36:24.07,-2805,9823,-12834,-15,135,-47,93,-150,-140,-60,-23
,355,2018/03/15 01:36:24.09,-2826,9729,-12837,16,161,-22,111,-145,-133,-88,-44
,356,2018/03/15 01:36:24.11,-2861,9719,-12784,-15,114,-3,128,-129,-131,-49,-62
,357,2018/03/15 01:36:24.13,-2806,9631,-12824,-52,73,0,132,-125,-132,-10,-66
,358,2018/03/15 01:36:24.15,-2772,9471,-12895,-46,80,-43,84,-126,-127,-17,-20
,359,2018/03/15 01:36:24.17,-2726,9616,-12642,-17,121,-64,69,-138,-133,-52,-2
,360,2018/03/15 01:36:24.19,-2750,9683,-12761,-20,120,-55,78,-140,-133,-50,-11
,361,2018/03/15 01:36:24.21,-2758,9826,-12907,-36,94,-10,131,-130,-141,-29,-60
,362,2018/03/15 01:36:24.23,-2754,9738,-12821,-57,77,-13,124,-134,-137,-10,-55
,363,2018/03/15 01:36:24.25,-2795,9669,-13083,-41,91,-48,78,-132,-126,-25,-15
,364,2018/03/15 01:36:24.27,-2759,10024,-12978,-18,113,-75,47,-131,-122,-47,14
,365,2018/03/15 01:36:24.29,-2762,10144,-12772,-36,94,-64,59,-130,-123,-29,2
,366,2018/03/15 01:36:24.31,-2744,9705,-12729,-83,36,-51,72,-119,-123,23,-10
,367,2018/03/15 01:36:24.33,-2723,9508,-12878,-104,10,-70,50,-114,-120,47,10
,368,2018/03/15 01:36:24.35,-2770,9787,-12989,-93,23,-119,-5,-116,-114,35,62
,369,2018/03/15 01:36:24.37,-2717,9781,-12634,-80,37,-129,-20,-117,-109,21,74
,370,2018/03/15 01:36:24.39,-2765,9798,-12907,-83,36,-82,34,-119,-116,23,24
,371,2018/03/15 01:36:24.41,-2761,9728,-12601,-88,16,-33,75,-104,-108,36,-21
,372,2018/03/15 01:36:24.43,-2638,9702,-12739,-80,29,-40,78,-109,-118,25,-19
,373,2018/03/15 01:36:24.45,-2767,9512,-12794,-40,80,-64,55,-120,-119,-20,4
,374,2018/03/15 01:36:24.47,-2704,9519,-12880,-12,113,-58,60,-125,-118,-50,-1
,375,2018/03/15 01:36:24.49,-2658,9615,-12940,-18,102,-17,102,-120,-119,-42,-42
,376,2018/03/15 01:36:24.51,-2630,9653,-12918,-51,63,-1,122,-114,-123,-6,-60
,377,2018/03/15 01:36:24.53,-2691,9713,-12920,-39,82,-13,117,-121,-130,-21,-52
,378,2018/03/15 01:36:24.55,-2698,9680,-12783,-13,121,-45,78,-134,-123,-54,-16
,379,2018/03/15 01:36:24.57,-2599,9515,-12890,10,138,-40,84,-128,-124,-74,-22
,380,2018/03/15 01:36:24.59,-2653,9555,-12973,-32,94,-30,99,-126,-129,-31,-34
,381,2018/03/15 01:36:24.61,-2699,10612,-12959,-65,65,0,134,-130,-134,0,-67
,382,2018/03/15 01:36:24.63,-2868,9538,-12486,-43,83,-15,115,-126,-130,-20,-50
,383,2018/03/15 01:36:24.65,-2906,9289,-13005,-20,109,-69,60,-129,-129,-44,4
,384,2018/03/15 01:36:24.67,-2804,9260,-12898,-23,120,-71,65,-143,-136,-48,3
,385,2018/03/15 01:36:24.69,-2760,9638,-13030,-56,75,-37,92,-131,-129,-9,-27
,386,2018/03/15 01:36:24.71,-2654,9612,-12887,-84,34,-16,110,-118,-126,25,-47
,387,2018/03/15 01:36:24.73,-2620,9835,-13032,-49,79,-40,95,-128,-135,-15,-27
,388,2018/03/15 01:36:24.75,-2657,9701,-13036,-15,123,-60,68,-138,-128,-54,-4
,389,2018/03/15 01:36:24.77,-2681,9673,-12852,-12,124,-38,94,-136,-132,-56,-28
,390,2018/03/15 01:36:24.79,-2746,9575,-12868,-32,103,-10,137,-135,-147,-35,-63
,391,2018/03/15 01:36:24.81,-2663,9577,-12902,-61,78,-10,136,-139,-146,-8,-63
,392,2018/03/15 01:36:24.83,-2815,9605,-12908,-36,106,-39,102,-142,-141,-35,-31
,393,2018/03/15 01:36:24.85,-2795,9537,-12957,-10,140,-58,84,-150,-142,-65,-13
,394,2018/03/15 01:36:24.87,-2657,9669,-12849,-6,146,-37,117,-152,-154,-70,-40
,395,2018/03/15 01:36:24.89,-2780,9645,-12995,-54,94,-18,133,-148,-151,-20,-57
,396,2018/03/15 01:36:24.91,-2712,9619,-12984,-66,78,-17,133,-144,-150,-6,-58
,397,2018/03/15 01:36:24.93,-2832,9620,-12822,-38,109,-56,84,-147,-140,-35,-14
,398,2018/03/15 01:36:24.95,-2822,9571,-12770,-26,122,-84,56,-148,-140,-48,14
,399,2018/03/15 01:36:24.97,-2712,9653,-12810,-42,99,-58,80,-141,-138,-28,-11
,400,2018/03/15 01:36:24.99,-2701,9597,-12950,-75,57,-34,107,-132,-141,9,-36
,401,2018/03/15 01:36:25.01,-2721,9673,-12897,-82,52,-43,99,-134,-142,15,-28
,402,2018/03/15 01:36:25.03,-2678,9870,-12945,-40,102,-72,65,-142,-137,-31,3
,403,2018/03/15 01:36:25.05,-2688,9865,-12949,-30,116,-85,45,-146,-130,-43,20
,404,2018/03/15 01:36:25.07,-2733,9740,-12929,-51,85,-54,81,-136,-135,-17,-13
,405,2018/03/15 01:36:25.09,-2658,9554,-12937,-79,48,-28,109,-127,-137,15,-40
,406,2018/03/15 01:36:25.11,-2691,9592,-12901,-77,54,-50,80,-131,-130,11,-15
,407,2018/03/15 01:36:25.13,-2702,9535,-12978,-49,83,-77,49,-132,-126,-17,14
,408,2018/03/15 01:36:25.15,-2819,9568,-12923,-21,114,-63,65,-135,-128,-46,-1
,409,2018/03/15 01:36:25.17,-2784,9512,-12854,-36,96,-24,115,-132,-139,-30,-45
,410,2018/03/15 01:36:25.19,-2834,9464,-12890,-61,76,-5,135,-137,-140,-7,-65
,411,2018/03/15 01:36:25.21,-2820,9497,-12893,-50,82,-38,94,-132,-132,-16,-28
,412,2018/03/15 01:36:25.23,-2792,9516,-12934,-27,104,-64,56,-131,-120,-38,4
,413,2018/03/15 01:36:25.25,-2713,9566,-12976,-16,115,-60,71,-131,-131,-49,-5
,414,2018/03/15 01:36:25.27,-2712,9636,-12972,-53,78,-40,94,-131,-134,-12,-27
,415,2018/03/15 01:36:25.29,-2733,9637,-13060,-78,49,-24,109,-127,-133,14,-42
,416,2018/03/15 01:36:25.31,-2741,9700,-13046,-59,68,-53,71,-127,-124,-4,-9
,417,2018/03/15 01:36:25.33,-2727,9713,-12929,-28,96,-78,36,-124,-114,-34,21
,418,2018/03/15 01:36:25.35,-2799,9644,-12968,-30,91,-53,63,-121,-116,-30,-5
,419,2018/03/15 01:36:25.37,-2769,9684,-12966,-32,79,-3,114,-111,-117,-23,-55
,420,2018/03/15 01:36:25.39,-2802,9581,-12945,-64,45,-26,90,-109,-116,9,-32
,421,2018/03/15 01:36:25.41,-2752,9655,-12926,-37,77,-13,103,-114,-116,-20,-45
,422,2018/03/15 01:36:25.43,-2740,9611,-12926,24,152,-52,71,-128,-123,-88,-9
,423,2018/03/15 01:36:25.45,-2679,9566,-12994,-54,69,-94,22,-123,-116,-7,36
,424,2018/03/15 01:36:25.47,-2657,9588,-12946,-98,7,-59,56,-105,-115,45,1
,425,2018/03/15 01:36:25.49,-2725,9558,-12953,-114,-8,-87,20,-106,-107,61,33
,426,2018/03/15 01:36:25.51,-2626,9575,-12931,-100,5,-110,-6,-105,-104,47,58
,427,2018/03/15 01:36:25.53,-2652,9512,-12922,-64,48,-111,0,-112,-111,8,55
,428,2018/03/15 01:36:25.55,-2713,9569,-12964,-66,57,-65,64,-123,-129,4,0
,429,2018/03/15 01:36:25.57,-2675,9552,-12991,-67,60,-10,121,-127,-131,3,-55
,430,2018/03/15 01:36:25.59,-2782,9673,-12944,-50,72,-9,114,-122,-123,-11,-52
,431,2018/03/15 01:36:25.61,-2766,9511,-13033,-10,110,-26,80,-120,-106,-50,-27
,432,2018/03/15 01:36:25.63,-2801,9636,-12965,19,128,-32,71,-109,-103,-73,-19
,433,2018/03/15 01:36:25.65,-2678,9555,-13017,13,128,32,149,-115,-117,-70,-90
,434,2018/03/15 01:36:25.67,-2737,9440,-12943,10,117,52,164,-107,-112,-63,-108
,435,2018/03/15 01:36:25.69,-2739,9546,-12823,-4,106,13,130,-110,-117,-51,-71
,436,2018/03/15 01:36:25.71,-2809,9540,-12847,12,134,-22,95,-122,-117,-73,-36
,437,2018/03/15 01:36:25.73,-2733,9610,-12971,29,156,-15,107,-127,-122,-92,-46
,438,2018/03/15 01:36:25.75,-2723,9603,-13013,6,129,11,134,-123,-123,-67,-72
,439,2018/03/15 01:36:25.77,-2800,9685,-13013,-34,80,13,135,-114,-122,-23,-74
,440,2018/03/15 01:36:25.79,-2777,9691,-12934,-26,99,-13,117,-125,-130,-36,-52
,441,2018/03/15 01:36:25.81,-2698,9611,-13001,-13,121,-62,67,-134,-129,-54,-2
,442,2018/03/15 01:36:25.83,-2735,9574,-13033,2,138,-18,115,-136,-133,-70,-48
,443,2018/03/15 01:36:25.85,-2760,9490,-12985,3,137,7,146,-134,-139,-70,-76
,444,2018/03/15 01:36:25.87,-2751,9452,-13009,-45,90,3,143,-135,-140,-22,-73
,445,2018/03/15 01:36:25.89,-2612,9459,-12939,-31,111,-22,121,-142,-143,-40,-49
,446,2018/03/15 01:36:25.91,-2671,9499,-12982,-5,144,-46,98,-149,-144,-69,-26
,447,2018/03/15 01:36:25.93,-2772,9603,-12909,6,154,-22,121,-148,-143,-80,-49
,448,2018/03/15 01:36:25.95,-2780,9416,-12926,-30,112,-13,139,-142,-152,-41,-63
,449,2018/03/15 01:36:25.97,-2814,9526,-13065,-63,85,-23,136,-148,-159,-11,-56
,450,2018/03/15 01:36:25.99,-2745,9581,-12998,-47,106,-49,98,-153,-147,-29,-24
,451,2018/03/15 01:36:26.01,-2826,9547,-13014,-16,138,-66,78,-154,-144,-61,-6
,452,2018/03/15 01:36:26.03,-2817,9575,-12960,-28,123,-57,94,-151,-151,-47,-18
,453,2018/03/15 01:36:26.05,-2798,9538,-13099,-66,82,-31,124,-148,-155,-8,-46
,454,2018/03/15 01:36:26.07,-2769,9603,-13068,-72,69,-26,116,-141,-142,1,-45
,455,2018/03/15 01:36:26.09,-2711,9579,-12913,-42,92,-58,71,-134,-129,-25,-6
,456,2018/03/15 01:36:26.11,-2744,9434,-13190,-20,125,-74,69,-145,-143,-52,2
,457,2018/03/15 01:36:26.13,-2761,9743,-13250,-55,92,-77,65,-147,-142,-18,6
,458,2018/03/15 01:36:26.15,-2740,9577,-12939,-93,38,-48,83,-131,-131,27,-17
,459,2018/03/15 01:36:26.17,-2802,9649,-13242,-92,24,-65,50,-116,-115,34,7
,460,2018/03/15 01:36:26.19,-2727,9772,-13105,-78,34,-99,-5,-112,-94,22,52
,461,2018/03/15 01:36:26.21,-2815,9532,-13147,-48,44,-80,6,-92,-86,2,37
,462,2018/03/15 01:36:26.23,-2767,9307,-13004,-48,40,-40,56,-88,-96,4,-8
,463,2018/03/15 01:36:26.25,-2526,9546,-13199,-44,50,34,137,-94,-103,-3,-85
,464,2018/03/15 01:36:26.27,-2606,9393,-13209,-11,82,-5,95,-93,-100,-35,-45
,465,2018/03/15 01:36:26.29,-2579,9407,-13241,-9,97,-48,64,-106,-112,-44,-8
,466,2018/03/15 01:36:26.31,-2697,9342,-13395,-4,123,-46,78,-127,-124,-59,-16
,467,2018/03/15 01:36:26.33,-2649,9302,-13331,-14,115,-6,127,-129,-133,-50,-60
,468,2018/03/15 01:36:26.35,-2571,9221,-13435,-46,79,-2,128,-125,-130,-16,-63
,469,2018/03/15 01:36:26.37,-2545,9218,-13413,-37,87,-22,104,-124,-126,-25,-41
,470,2018/03/15 01:36:26.39,-2576,9004,-13519,-12,118,-51,70,-130,-121,-53,-9
,471,2018/03/15 01:36:26.41,-2542,8657,-13491,-3,123,-32,86,-126,-118,-60,-27
,472,2018/03/15 01:36:26.43,-2447,8768,-13438,-26,89,-24,94,-115,-118,-31,-35
,473,2018/03/15 01:36:26.45,-2430,8784,-13389,-74,39,-31,86,-113,-117,17,-27
,474,2018/03/15 01:36:26.47,-2381,9510,-13858,-60,50,-54,52,-110,-106,5,1
,475,2018/03/15 01:36:26.49,-2488,8962,-13674,-22,93,-52,60,-115,-112,-35,-4
,476,2018/03/15 01:36:26.51,-2436,8511,-13871,-15,108,-50,72,-123,-122,-46,-11
,477,2018/03/15 01:36:26.53,-2488,8358,-13910,-52,72,-18,113,-124,-131,-10,-47
,478,2018/03/15 01:36:26.55,-2357,8294,-13978,-56,61,-17,104,-117,-121,-2,-43
,479,2018/03/15 01:36:26.57,-2281,8066,-13994,-42,77,-51,68,-119,-119,-17,-8
,480,2018/03/15 01:36:26.59,-2194,7856,-14055,-27,103,-73,51,-130,-124,-38,11
,481,2018/03/15 01:36:26.61,-2137,7643,-14088,-32,97,-40,84,-129,-124,-32,-22
,482,2018/03/15 01:36:26.63,-2099,7551,-14122,-46,76,-11,117,-122,-128,-15,-53
,483,2018/03/15 01:36:26.65,-2051,7250,-14168,-54,68,-19,111,-122,-130,-7,-46
,484,2018/03/15 01:36:26.67,-2066,7313,-14249,-30,99,-56,66,-129,-122,-34,-5
,485,2018/03/15 01:36:26.69,-2014,7079,-14373,-24,107,-59,63,-131,-122,-41,-2
,486,2018/03/15 01:36:26.71,-2053,7066,-14365,-28,106,-29,102,-134,-131,-39,-36
,487,2018/03/15 01:36:26.73,-1989,7007,-14541,-43,86,0,138,-129,-138,-21,-69
,488,2018/03/15 01:36:26.75,-2037,6923,-14482,-44,87,-22,108,-131,-130,-21,-43
,489,2018/03/15 01:36:26.77,-1981,6872,-14540,-10,118,-29,93,-128,-122,-54,-32
,490,2018/03/15 01:36:26.79,-2009,6800,-14594,7,140,-37,98,-133,-135,-73,-30
,491,2018/03/15 01:36:26.81,-1936,6835,-14556,-14,122,-14,121,-136,-135,-54,-53
,492,2018/03/15 01:36:26.83,-1932,6817,-14522,-42,88,3,140,-130,-137,-23,-71
,493,2018/03/15 01:36:26.85,-1881,6875,-14609,-30,93,-12,112,-123,-124,-31,-50
,494,2018/03/15 01:36:26.87,-1915,6765,-14617,-17,115,-55,74,-132,-129,-49,-9
,495,2018/03/15 01:36:26.89,-1837,6775,-14610,-16,125,-48,90,-141,-138,-54,-21
,496,2018/03/15 01:36:26.91,-1797,6882,-14690,-24,115,-18,120,-139,-138,-45,-51
,497,2018/03/15 01:36:26.93,-1794,6868,-14635,-58,75,-15,123,-133,-138,-8,-54
,498,2018/03/15 01:36:26.95,-1785,6852,-14629,-53,82,-48,95,-135,-143,-14,-23
,499,2018/03/15 01:36:26.97,-1724,6774,-14642,-39,110,-76,65,-149,-141,-35,5
,500,2018/03/15 01:36:26.99,-1779,6813,-14693,-31,116,-62,74,-147,-136,-42,-6
,501,2018/03/15 01:36:27.01,-1723,6697,-14623,-58,80,-41,100,-138,-141,-11,-29
,502,2018/03/15 01:36:27.03,-1709,6649,-14674,-82,51,-49,91,-133,-140,15,-21
,503,2018/03/15 01:36:27.05,-1720,7070,-14939,-84,54,-80,60,-138,-140,15,10
,504,2018/03/15 01:36:27.07,-1714,7269,-14713,-46,101,-67,76,-147,-143,-27,-4
,505,2018/03/15 01:36:27.09,-1778,7068,-14637,-34,108,-67,66,-142,-133,-37,0
,506,2018/03/15 01:36:27.11,-1866,6893,-14749,-70,50,-41,87,-120,-128,10,-23
,507,2018/03/15 01:36:27.13,-1744,6878,-14672,-77,42,-38,83,-119,-121,17,-22
,508,2018/03/15 01:36:27.15,-1688,6672,-14603,-45,75,-51,72,-120,-123,-15,-10
,509,2018/03/15 01:36:27.17,-1785,6797,-14522,-28,104,-71,53,-132,-124,-38,9
,510,2018/03/15 01:36:27.19,-1750,7020,-14620,-37,89,-54,70,-126,-124,-26,-8
,511,2018/03/15 01:36:27.21,-1788,7161,-14628,-58,62,-23,104,-120,-127,-2,-40
,512,2018/03/15 01:36:27.23,-1810,7189,-14722,-62,60,-24,100,-122,-124,1,-38
,513,2018/03/15 01:36:27.25,-1818,7235,-14604,-36,82,-54,60,-118,-114,-23,-3
,514,2018/03/15 01:36:27.27,-1794,7248,-14582,-19,101,-55,59,-120,-114,-41,-2
,515,2018/03/15 01:36:27.29,-1754,7219,-14518,-19,98,-24,97,-117,-121,-39,-36
,516,2018/03/15 01:36:27.31,-1711,7203,-14612,-44,77,-13,118,-121,-131,-16,-52
,517,2018/03/15 01:36:27.33,-1735,7296,-14629,-54,72,-28,102,-126,-130,-9,-37
,518,2018/03/15 01:36:27.35,-1745,7298,-14552,-32,101,-61,68,-133,-129,-34,-3
,519,2018/03/15 01:36:27.37,-1717,7082,-14471,-22,116,-53,81,-138,-134,-47,-14
,520,2018/03/15 01:36:27.39,-1809,7312,-14479,-20,111,-17,107,-131,-124,-45,-45
,521,2018/03/15 01:36:27.41,-1828,7248,-14508,-45,69,-13,112,-114,-125,-12,-49
,522,2018/03/15 01:36:27.43,-1875,7191,-14455,-56,72,-38,98,-128,-136,-8,-30
,523,2018/03/15 01:36:27.45,-1874,7316,-14421,-28,110,-50,78,-138,-128,-41,-14
,524,2018/03/15 01:36:27.47,-1850,7393,-14541,-10,123,-46,81,-133,-127,-56,-17
,525,2018/03/15 01:36:27.49,-1802,7506,-14547,-27,107,-21,117,-134,-138,-40,-48
,526,2018/03/15 01:36:27.51,-1811,7406,-14521,-55,75,-9,122,-130,-131,-10,-56
,527,2018/03/15 01:36:27.53,-1844,7465,-14523,-41,85,-30,92,-126,-122,-22,-31
,528,2018/03/15 01:36:27.55,-1862,7473,-14462,-25,98,-54,67,-123,-121,-36,-6
,529,2018/03/15 01:36:27.57,-1847,7476,-14504,-13,116,-39,86,-129,-125,-51,-23
,530,2018/03/15 01:36:27.59,-1819,7492,-14498,-34,92,-17,113,-126,-130,-29,-48
,531,2018/03/15 01:36:27.61,-1801,7630,-14477,-57,64,-18,109,-121,-127,-3,-45
,532,2018/03/15 01:36:27.63,-1826,7442,-14484,-50,76,-54,71,-126,-125,-13,-8
,533,2018/03/15 01:36:27.65,-1860,7435,-14467,-34,97,-67,53,-131,-120,-31,7
,534,2018/03/15 01:36:27.67,-1751,7364,-14432,-28,92,-52,59,-120,-111,-32,-3
,535,2018/03/15 01:36:27.69,-1888,7337,-14379,-48,57,-13,99,-105,-112,-4,-43
,536,2018/03/15 01:36:27.71,-1725,7439,-14331,-42,66,0,120,-108,-120,-12,-60
,537,2018/03/15 01:36:27.73,-1775,7432,-14373,-22,101,-37,87,-123,-124,-39,-25
,538,2018/03/15 01:36:27.75,-1862,7468,-14411,-13,116,-54,64,-129,-118,-51,-5
,539,2018/03/15 01:36:27.77,-1873,7610,-14406,-20,100,-37,83,-120,-120,-40,-23
,540,2018/03/15 01:36:27.79,-1811,7576,-14390,-45,72,-11,116,-117,-127,-13,-52
,541,2018/03/15 01:36:27.81,-1793,7580,-14336,-52,75,-17,116,-127,-133,-11,-49
,542,2018/03/15 01:36:27.83,-1837,7591,-14466,-26,105,-41,85,-131,-126,-39,-22
,543,2018/03/15 01:36:27.85,-1898,7584,-14378,-7,125,-46,78,-132,-124,-59,-16
,544,2018/03/15 01:36:27.87,-1900,7482,-14433,-23,104,-40,90,-127,-130,-40,-25
,545,2018/03/15 01:36:27.89,-1826,7468,-14281,-62,64,-22,108,-126,-130,-1,-43
,546,2018/03/15 01:36:27.91,-1911,7596,-14341,-62,57,-34,88,-119,-122,2,-27
,547,2018/03/15 01:36:27.93,-1817,7654,-14426,-32,90,-57,64,-122,-121,-29,-3
,548,2018/03/15 01:36:27.95,-1861,7701,-14524,-15,113,-50,72,-128,-122,-49,-11
,549,2018/03/15 01:36:27.97,-1865,7723,-14513,-20,104,-22,103,-124,-125,-42,-40
,550,2018/03/15 01:36:27.99,-1797,7675,-14475,-51,71,-14,117,-122,-131,-10,-51
,551,2018/03/15 01:36:28.01,-1970,7727,-14290,-50,75,-27,102,-125,-129,-12,-37
,552,2018/03/15 01:36:28.03,-1872,7741,-14172,-21,112,-51,78,-133,-129,-45,-13
,553,2018/03/15 01:36:28.05,-1928,7928,-14106,-22,116,-64,73,-138,-137,-47,-4
,554,2018/03/15 01:36:28.07,-2002,7895,-14083,-45,93,-31,107,-138,-138,-24,-38
,555,2018/03/15 01:36:28.09,-2187,7994,-13949,-64,66,-23,113,-130,-136,-1,-45
,556,2018/03/15 01:36:28.11,-2256,8087,-14042,-55,77,-45,88,-132,-133,-11,-21
,557,2018/03/15 01:36:28.13,-2313,8191,-13833,-34,104,-67,67,-138,-134,-35,0
,558,2018/03/15 01:36:28.15,-2317,8323,-13872,-20,117,-47,83,-137,-130,-48,-18
,559,2018/03/15 01:36:28.17,-2467,8393,-13756,-47,84,-38,102,-131,-140,-18,-32
,560,2018/03/15 01:36:28.19,-2497,8438,-13618,-70,62,-23,112,-132,-135,4,-44
,561,2018/03/15 01:36:28.21,-2602,8592,-13755,-37,89,-28,93,-126,-121,-26,-32
,562,2018/03/15 01:36:28.23,-2613,8543,-13691,-4,121,-46,75,-125,-121,-58,-14
,563,2018/03/15 01:36:28.25,-2705,8583,-13687,-19,115,-45,88,-134,-133,-48,-21
,564,2018/03/15 01:36:28.27,-2682,8572,-13732,-40,89,-11,124,-129,-135,-24,-56
,565,2018/03/15 01:36:28.29,-2639,8545,-13678,-50,81,-16,118,-131,-134,-15,-51
,566,2018/03/15 01:36:28.31,-2592,8629,-13687,-41,92,-51,76,-133,-127,-25,-12
,567,2018/03/15 01:36:28.33,-2605,8618,-13704,-20,112,-57,64,-132,-121,-46,-3
,568,2018/03/15 01:36:28.35,-2598,8601,-13679,-30,92,-51,67,-122,-118,-31,-8
,569,2018/03/15 01:36:28.37,-2516,8506,-13683,-62,54,-28,101,-116,-129,4,-36
,570,2018/03/15 01:36:28.39,-2529,8585,-13607,-62,62,-26,103,-124,-129,0,-38
,571,2018/03/15 01:36:28.41,-2591,8546,-13653,-30,99,-34,91,-129,-125,-34,-28
,572,2018/03/15 01:36:28.43,-2506,8521,-13687,-2,133,-53,80,-135,-133,-65,-13
,573,2018/03/15 01:36:28.45,-2569,8520,-13686,-35,108,-38,106,-143,-144,-36,-34
,574,2018/03/15 01:36:28.47,-2578,8480,-13690,-47,87,-3,135,-134,-138,-20,-66
,575,2018/03/15 01:36:28.49,-2562,8585,-13708,-40,96,-20,125,-136,-145,-28,-52
,576,2018/03/15 01:36:28.51,-2491,8602,-13649,-28,120,-50,94,-148,-144,-46,-22
,577,2018/03/15 01:36:28.53,-2569,8730,-13642,-12,145,-56,99,-157,-155,-66,-21
,578,2018/03/15 01:36:28.55,-2606,8771,-13761,-43,112,-42,111,-155,-153,-34,-34
,579,2018/03/15 01:36:28.57,-2602,8789,-13652,-64,78,-20,122,-142,-142,-7,-51
,580,2018/03/15 01:36:28.59,-2570,8743,-13646,-52,79,-36,98,-131,-134,-13,-31
,581,2018/03/15 01:36:28.61,-2590,8863,-13603,-32,105,-56,72,-137,-128,-36,-8
,582,2018/03/15 01:36:28.63,-2562,8756,-13733,-8,124,-36,91,-132,-127,-58,-27
,583,2018/03/15 01:36:28.65,-2518,8699,-13695,-22,105,-14,115,-127,-129,-41,-50
,584,2018/03/15 01:36:28.67,-2619,8733,-13582,-48,70,-12,114,-118,-126,-11,-51
,585,2018/03/15 01:36:28.69,-2594,8717,-13467,-45,82,-39,92,-127,-131,-18,-26
,586,2018/03/15 01:36:28.71,-2588,8660,-13537,-26,107,-68,64,-133,-132,-40,2
,587,2018/03/15 01:36:28.73,-2544,8694,-13671,-24,105,-50,74,-129,-124,-40,-12
,588,2018/03/15 01:36:28.75,-2507,8802,-13579,-35,87,-17,110,-122,-127,-26,-46
,589,2018/03/15 01:36:28.77,-2540,8792,-13628,-55,66,-23,103,-121,-126,-5,-40
,590,2018/03/15 01:36:28.79,-2511,8818,-13625,-42,83,-40,84,-125,-124,-20,-22
,591,2018/03/15 01:36:28.81,-2438,8756,-13572,-23,111,-64,65,-134,-129,-44,0
,592,2018/03/15 01:36:28.83,-2433,8801,-13619,-24,113,-46,91,-137,-137,-44,-22
,593,2018/03/15 01:36:28.85,-2471,8695,-13598,-56,81,-31,110,-137,-141,-12,-39
,594,2018/03/15 01:36:28.87,-2409,8773,-13612,-64,61,-28,102,-125,-130,1,-37
,595,2018/03/15 01:36:28.89,-2414,8682,-13636,-46,85,-53,76,-131,-129,-19,-11
,596,2018/03/15 01:36:28.91,-2425,8697,-13582,-30,102,-74,50,-132,-124,-36,12
,597,2018/03/15 01:36:28.93,-2438,8605,-13625,-41,89,-50,82,-130,-132,-24,-16
,598,2018/03/15 01:36:28.95,-2444,8738,-13526,-57,71,-22,109,-128,-131,-7,-43
,599,2018/03/15 01:36:28.97,-2450,8729,-13656,-60,64,-32,100,-124,-132,-2,-34
,600,2018/03/15 01:36:28.99,-2367,8722,-13672,-39,95,-52,78,-134,-130,-28,-13
,601,2018/03/15 01:36:29.01,-2411,8726,-13675,-18,116,-56,67,-134,-123,-49,-5
,602,2018/03/15 01:36:29.03,-2468,8731,-13684,-25,100,-28,98,-125,-126,-37,-35
,603,2018/03/15 01:36:29.05,-2443,8704,-13667,-43,83,-14,120,-126,-134,-20,-53
,604,2018/03/15 01:36:29.07,-2433,8717,-13684,-60,65,-33,94,-125,-127,-2,-30
,605,2018/03/15 01:36:29.09,-2518,8760,-13667,-34,98,-51,75,-132,-126,-32,-12
,606,2018/03/15 01:36:29.11,-2484,8707,-13624,-8,125,-38,87,-133,-125,-58,-24
,607,2018/03/15 01:36:29.13,-2525,8755,-13591,-24,107,-15,116,-131,-131,-41,-50
,608,2018/03/15 01:36:29.15,-2445,8713,-13657,-44,85,-6,129,-129,-135,-20,-61
,609,2018/03/15 01:36:29.17,-2505,8778,-13567,-42,83,-19,102,-125,-121,-20,-41
,610,2018/03/15 01:36:29.19,-2518,8724,-13599,-8,114,-27,94,-122,-121,-53,-33
,611,2018/03/15 01:36:29.21,-2511,8740,-13597,7,138,-35,95,-131,-130,-72,-30
,612,2018/03/15 01:36:29.23,-2450,8675,-13589,-26,105,-12,121,-131,-133,-39,-54
,613,2018/03/15 01:36:29.25,-2523,8701,-13622,-44,78,-13,118,-122,-131,-17,-52
,614,2018/03/15 01:36:29.27,-2482,8689,-13608,-52,78,-52,80,-130,-132,-13,-14
,615,2018/03/15 01:36:29.29,-2481,8721,-13566,-44,94,-75,56,-138,-131,-25,9
,616,2018/03/15 01:36:29.31,-2527,8722,-13632,-29,107,-48,82,-136,-130,-39,-17
,617,2018/03/15 01:36:29.33,-2433,8747,-13598,-42,89,-24,114,-131,-138,-23,-45
,618,2018/03/15 01:36:29.35,-2489,8767,-13620,-50,80,-4,126,-130,-130,-15,-61
,619,2018/03/15 01:36:29.37,-2450,8739,-13635,-32,94,-35,91,-126,-126,-31,-28
,620,2018/03/15 01:36:29.39,-2528,8793,-13581,-18,113,-58,64,-131,-122,-47,-3
,621,2018/03/15 01:36:29.41,-2542,8726,-13631,-21,103,-39,82,-124,-121,-41,-21
,622,2018/03/15 01:36:29.43,-2522,8679,-13619,-44,77,-22,103,-121,-125,-16,-40
,623,2018/03/15 01:36:29.45,-2469,8760,-13449,-61,54,-30,88,-115,-118,3,-29
,624,2018/03/15 01:36:29.47,-2455,8849,-13507,-47,72,-48,71,-119,-119,-12,-11
,625,2018/03/15 01:36:29.49,-2475,8846,-13657,-16,112,-53,71,-128,-124,-48,-9
,626,2018/03/15 01:36:29.51,-2388,8861,-13646,-18,112,-36,96,-130,-132,-47,-30
,627,2018/03/15 01:36:29.53,-2379,8915,-13600,-46,84,-24,112,-130,-136,-19,-44
,628,2018/03/15 01:36:29.55,-2366,8908,-13637,-56,71,-31,103,-127,-134,-7,-36
,629,2018/03/15 01:36:29.57,-2494,8789,-13571,-32,102,-37,90,-134,-127,-35,-26
,630,2018/03/15 01:36:29.59,-2394,8749,-13579,6,137,-30,91,-131,-121,-71,-30
,631,2018/03/15 01:36:29.61,-2458,8718,-13536,3,127,3,122,-124,-119,-65,-62
,632,2018/03/15 01:36:29.63,-2426,8709,-13552,-14,95,11,126,-109,-115,-40,-68
,633,2018/03/15 01:36:29.65,-2441,8700,-13543,-35,78,-22,100,-113,-122,-21,-39
,634,2018/03/15 01:36:29.67,-2542,8665,-13555,-22,100,-44,68,-122,-112,-39,-12
,635,2018/03/15 01:36:29.69,-2541,8718,-13535,-18,97,-60,54,-115,-114,-39,3
,636,2018/03/15 01:36:29.71,-2432,8719,-13500,-41,79,-34,90,-120,-124,-19,-28
,637,2018/03/15 01:36:29.73,-2463,8714,-13583,-58,63,-20,112,-121,-132,-2,-46
,638,2018/03/15 01:36:29.75,-2514,8730,-13656,-50,76,-33,92,-126,-125,-13,-29
,639,2018/03/15 01:36:29.77,-2397,8746,-13628,-26,99,-46,72,-125,-118,-36,-13
,640,2018/03/15 01:36:29.79,-2492,8757,-13624,-6,120,-46,76,-126,-122,-57,-15
,641,2018/03/15 01:36:29.81,-2448,8760,-13621,-45,77,-38,87,-122,-125,-16,-24
,642,2018/03/15 01:36:29.83,-2464,8757,-13578,-65,58,-25,108,-123,-133,3,-41
,643,2018/03/15 01:36:29.85,-2458,8736,-13605,-51,80,-44,89,-131,-133,-14,-22
,644,2018/03/15 01:36:29.87,-2554,8727,-13600,-34,102,-70,55,-136,-125,-34,7
,645,2018/03/15 01:36:29.89,-2459,8709,-13605,-36,96,-59,72,-132,-131,-30,-6
,646,2018/03/15 01:36:29.91,-2411,8671,-13609,-49,79,-24,110,-128,-134,-15,-43
,647,2018/03/15 01:36:29.93,-2437,8686,-13545,-57,74,-19,114,-131,-133,-8,-47
,648,2018/03/15 01:36:29.95,-2470,8682,-13612,-52,79,-37,89,-131,-126,-13,-26
,649,2018/03/15 01:36:29.97,-2437,8664,-13559,-13,121,-48,81,-134,-129,-54,-16
,650,2018/03/15 01:36:29.99,-2400,8713,-13620,-18,117,-40,98,-135,-138,-49,-29
,651,2018/03/15 01:36:30.01,-2428,8762,-13635,-47,88,-25,118,-135,-143,-20,-46
,652,2018/03/15 01:36:30.03,-2459,8704,-13602,-64,79,-28,126,-143,-154,-7,-49
,653,2018/03/15 01:36:30.05,-2424,8743,-13662,-38,113,-44,100,-151,-144,-37,-28
,654,2018/03/15 01:36:30.07,-2485,8723,-13631,-17,129,-52,89,-146,-141,-56,-18
,655,2018/03/15 01:36:30.09,-2454,8770,-13594,-18,127,-17,123,-145,-140,-54,-53
,656,2018/03/15 01:36:30.11,-2410,8728,-13544,-30,100,-15,122,-130,-137,-35,-53
,657,2018/03/15 01:36:30.13,-2371,8752,-13638,-57,76,-32,108,-133,-140,-9,-38
,658,2018/03/15 01:36:30.15,-2467,8806,-13554,-37,104,-49,87,-141,-136,-33,-19
,659,2018/03/15 01:36:30.17,-2535,8748,-13579,-16,124,-55,80,-140,-135,-54,-12
,660,2018/03/15 01:36:30.19,-2514,8739,-13527,-35,105,-37,104,-140,-141,-35,-33
,661,2018/03/15 01:36:30.21,-2458,8742,-13679,-52,81,-23,114,-133,-137,-14,-45
,662,2018/03/15 01:36:30.23,-2499,8692,-13578,-56,71,-26,100,-127,-126,-7,-37
,663,2018/03/15 01:36:30.25,-2490,8686,-13452,-22,103,-39,79,-125,-118,-40,-20
,664,2018/03/15 01:36:30.27,-2441,8785,-13452,-8,120,-50,77,-128,-127,-56,-13
,665,2018/03/15 01:36:30.29,-2457,8824,-13634,-35,94,-30,99,-129,-129,-29,-34
,666,2018/03/15 01:36:30.31,-2419,8921,-13678,-48,74,-12,122,-122,-134,-13,-55
,667,2018/03/15 01:36:30.33,-2408,8925,-13633,-45,87,-37,101,-132,-138,-21,-32
,668,2018/03/15 01:36:30.35,-2347,8879,-13617,-29,110,-70,66,-139,-136,-40,2
,669,2018/03/15 01:36:30.37,-2366,8810,-13599,-36,96,-68,54,-132,-122,-30,7
,670,2018/03/15 01:36:30.39,-2424,8759,-13527,-42,84,-24,109,-126,-133,-21,-42
,671,2018/03/15 01:36:30.41,-2441,8743,-13590,-50,77,-18,118,-127,-136,-13,-50
,672,2018/03/15 01:36:30.43,-2461,8690,-13571,-40,96,-32,101,-136,-133,-28,-34
,673,2018/03/15 01:36:30.45,-2491,8743,-13491,-22,113,-56,66,-135,-122,-45,-5
,674,2018/03/15 01:36:30.47,-2434,8686,-13576,-22,101,-48,78,-123,-126,-39,-15
,675,2018/03/15 01:36:30.49,-2448,8731,-13535,-38,94,-15,125,-132,-140,-28,-55
,676,2018/03/15 01:36:30.51,-2440,8745,-13526,-39,91,-3,128,-130,-131,-26,-62
,677,2018/03/15 01:36:30.53,-2442,8745,-13590,-28,96,-37,88,-124,-125,-34,-25
,678,2018/03/15 01:36:30.55,-2417,8788,-13602,-20,113,-58,75,-133,-133,-46,-8
,679,2018/03/15 01:36:30.57,-2364,8824,-13678,-25,116,-42,94,-141,-136,-45,-26
,680,2018/03/15 01:36:30.59,-2517,8762,-13669,-54,79,-42,101,-133,-143,-12,-29
,681,2018/03/15 01:36:30.61,-2443,8752,-13605,-78,61,-44,100,-139,-144,8,-28
,682,2018/03/15 01:36:30.63,-2530,8735,-13579,-52,89,-52,84,-141,-136,-18,-16
,683,2018/03/15 01:36:30.65,-2516,8715,-13605,-23,116,-56,71,-139,-127,-46,-7
,684,2018/03/15 01:36:30.67,-2519,8723,-13608,-30,101,-44,84,-131,-128,-35,-20
,685,2018/03/15 01:36:30.69,-2558,8675,-13562,-58,66,-33,100,-124,-133,-4,-33
,686,2018/03/15 01:36:30.71,-2571,8775,-13604,-72,59,-42,96,-131,-138,6,-27
,687,2018/03/15 01:36:30.73,-2462,8688,-13551,-44,94,-53,79,-138,-132,-25,-13
,688,2018/03/15 01:36:30.75,-2546,8686,-13591,-28,108,-74,54,-136,-128,-40,10
,689,2018/03/15 01:36:30.77,-2490,8731,-13622,-66,67,-51,82,-133,-133,0,-15
,690,2018/03/15 01:36:30.79,-2489,8726,-13597,-56,71,-17,115,-127,-132,-7,-49
,691,2018/03/15 01:36:30.81,-2423,8730,-13621,-58,70,-35,96,-128,-131,-6,-30
,692,2018/03/15 01:36:30.83,-2433,8734,-13607,-31,100,-48,81,-131,-129,-34,-16
,693,2018/03/15 01:36:30.85,-2387,8714,-13610,-16,121,-48,81,-137,-129,-52,-16
,694,2018/03/15 01:36:30.87,-2487,8785,-13578,-30,96,-22,106,-126,-128,-33,-42
,695,2018/03/15 01:36:30.89,-2509,8801,-13604,-51,72,-24,106,-123,-130,-10,-41
,696,2018/03/15 01:36:30.91,-2495,8836,-13582,-55,70,-36,91,-125,-127,-7,-27
,697,2018/03/15 01:36:30.93,-2397,8814,-13580,-26,107,-56,74,-133,-130,-40,-9
,698,2018/03/15 01:36:30.95,-2446,8823,-13569,-26,111,-53,76,-137,-129,-42,-11
,699,2018/03/15 01:36:30.97,-2421,8869,-13571,-49,74,-42,75,-123,-117,-12,-16
,700,2018/03/15 01:36:30.99,-2440,8763,-13535,-68,44,-27,94,-112,-121,12,-33
,701,2018/03/15 01:36:31.01,-2441,8746,-13592,-60,62,-72,52,-122,-124,-1,10
,702,2018/03/15 01:36:31.03,-2409,8587,-13594,-81,44,-128,-10,-125,-118,18,69
,703,2018/03/15 01:36:31.05,-2448,8684,-13493,-100,22,-116,5,-122,-121,39,55
,704,2018/03/15 01:36:31.07,-2495,8717,-13568,-98,27,-60,73,-125,-133,35,-6
,705,2018/03/15 01:36:31.09,-2483,8834,-13519,-79,51,-38,96,-130,-134,14,-29
,706,2018/03/15 01:36:31.11,-2444,8858,-13612,-51,81,-44,88,-132,-132,-15,-22
,707,2018/03/15 01:36:31.13,-2504,8870,-13652,-10,126,-31,97,-136,-128,-58,-33
,708,2018/03/15 01:36:31.15,-2481,8891,-13577,17,147,-3,124,-130,-127,-82,-60
,709,2018/03/15 01:36:31.17,-2397,8813,-13579,-15,108,-8,120,-123,-128,-46,-56
,710,2018/03/15 01:36:31.19,-2481,8746,-13587,-35,92,-10,128,-127,-138,-28,-59
,711,2018/03/15 01:36:31.21,-2388,8711,-13564,-30,109,-47,84,-139,-131,-39,-18
,712,2018/03/15 01:36:31.23,-2494,8707,-13562,-19,120,-51,82,-139,-133,-50,-15
,713,2018/03/15 01:36:31.25,-2497,8742,-13553,-20,116,-28,102,-136,-130,-48,-37
,714,2018/03/15 01:36:31.27,-2393,8751,-13601,-36,91,-8,125,-127,-133,-27,-58
,715,2018/03/15 01:36:31.29,-2473,8782,-13552,-47,78,-24,105,-125,-129,-15,-40
,716,2018/03/15 01:36:31.31,-2430,8741,-13528,-28,100,-39,84,-128,-123,-36,-22
,717,2018/03/15 01:36:31.33,-2400,8767,-13522,-5,123,-40,77,-128,-117,-59,-18
,718,2018/03/15 01:36:31.35,-2465,8764,-13607,-19,102,-22,104,-121,-126,-41,-41
,719,2018/03/15 01:36:31.37,-2412,8726,-13696,-35,88,0,128,-123,-128,-26,-64
,720,2018/03/15 01:36:31.39,-2409,8799,-13634,-38,85,-23,105,-123,-128,-23,-41
,721,2018/03/15 01:36:31.41,-2417,8714,-13623,-25,103,-50,69,-128,-119,-39,-9
,722,2018/03/15 01:36:31.43,-2541,8730,-13620,-24,104,-59,65,-128,-124,-40,-3
,723,2018/03/15 01:36:31.45,-2448,8747,-13514,-44,83,-42,88,-127,-130,-19,-23
,724,2018/03/15 01:36:31.47,-2518,8713,-13594,-67,57,-30,96,-124,-126,5,-33
,725,2018/03/15 01:36:31.49,-2531,8702,-13575,-56,62,-44,77,-118,-121,-3,-16
,726,2018/03/15 01:36:31.51,-2516,8706,-13593,-38,88,-62,58,-126,-120,-25,2
,727,2018/03/15 01:36:31.53,-2431,8710,-13615,-24,99,-47,73,-123,-120,-37,-13
,728,2018/03/15 01:36:31.55,-2440,8720,-13575,-33,88,-11,111,-121,-122,-27,-50
,729,2018/03/15 01:36:31.57,-2383,8756,-13579,-48,78,-25,115,-126,-140,-15,-45
,730,2018/03/15 01:36:31.59,-2452,8674,-13609,-64,68,-42,81,-132,-123,-2,-19
,731,2018/03/15 01:36:31.61,-2448,8705,-13596,-24,97,-60,60,-121,-120,-36,0
,732,2018/03/15 01:36:31.63,-2440,8764,-13620,-27,95,-46,78,-122,-124,-34,-16
,733,2018/03/15 01:36:31.65,-2440,8704,-13636,-42,83,-20,112,-125,-132,-20,-46
,734,2018/03/15 01:36:31.67,-2415,8717,-13656,-54,70,-28,95,-124,-123,-8,-33
,735,2018/03/15 01:36:31.69,-2498,8785,-13591,-53,63,-57,59,-116,-116,-5,-1
,736,2018/03/15 01:36:31.71,-2423,8750,-13573,-36,88,-62,58,-124,-120,-26,2
,737,2018/03/15 01:36:31.73,-2444,8812,-13608,-22,103,-34,95,-125,-129,-40,-30
,738,2018/03/15 01:36:31.75,-2452,8796,-13605,-37,96,-15,123,-133,-138,-29,-54
,739,2018/03/15 01:36:31.77,-2409,8732,-13628,-50,79,-20,112,-129,-132,-14,-46
,740,2018/03/15 01:36:31.79,-2436,8898,-13515,-40,91,-54,78,-131,-132,-25,-12
,741,2018/03/15 01:36:31.81,-2440,8716,-13555,-27,112,-56,78,-139,-134,-42,-11
,742,2018/03/15 01:36:31.83,-2428,8621,-13689,-31,105,-46,86,-136,-132,-37,-20
,743,2018/03/15 01:36:31.85,-2418,8698,-13542,-60,64,-25,102,-124,-127,-2,-38
,744,2018/03/15 01:36:31.87,-2486,8715,-13612,-49,72,-23,100,-121,-123,-11,-38
,745,2018/03/15 01:36:31.89,-2431,8830,-13667,-37,93,-56,76,-130,-132,-28,-10
,746,2018/03/15 01:36:31.91,-2416,8809,-13706,-30,111,-64,72,-141,-136,-40,-4
,747,2018/03/15 01:36:31.93,-2489,8870,-13671,-34,103,-35,103,-137,-138,-34,-34
,748,2018/03/15 01:36:31.95,-2432,8866,-13555,-55,76,-26,110,-131,-136,-10,-42
,749,2018/03/15 01:36:31.97,-2352,8753,-13555,-49,78,-39,93,-127,-132,-14,-27
,750,2018/03/15 01:36:31.99,-2465,8743,-13642,-34,99,-58,69,-133,-127,-32,-5
,751,2018/03/15 01:36:32.01,-2444,8671,-13624,-14,122,-51,77,-136,-128,-54,-13
,752,2018/03/15 01:36:32.03,-2407,8689,-13607,-40,94,-31,108,-134,-139,-27,-38
,753,2018/03/15 01:36:32.05,-2427,8656,-13562,-58,79,-30,111,-137,-141,-10,-40
,754,2018/03/15 01:36:32.07,-2405,8698,-13589,-47,86,-18,114,-133,-132,-19,-48
,755,2018/03/15 01:36:32.09,-2407,8750,-13537,1,136,-30,95,-135,-125,-68,-32
,756,2018/03/15 01:36:32.11,-2425,8753,-13568,-14,116,-54,74,-130,-128,-51,-10
,757,2018/03/15 01:36:32.13,-2398,8799,-13522,-49,81,-42,87,-130,-129,-16,-22
,758,2018/03/15 01:36:32.15,-2426,8790,-13608,-75,51,-40,101,-126,-141,12,-30
,759,2018/03/15 01:36:32.17,-2402,8760,-13592,-59,83,-52,94,-142,-146,-12,-21
,760,2018/03/15 01:36:32.19,-2418,8801,-13651,-36,112,-66,73,-148,-139,-38,-3
,761,2018/03/15 01:36:32.21,-2450,8780,-13607,-35,110,-56,86,-145,-142,-37,-15
,762,2018/03/15 01:36:32.23,-2439,8736,-13646,-49,89,-30,110,-138,-140,-20,-40
,763,2018/03/15 01:36:32.25,-2389,8770,-13602,-63,65,-34,97,-128,-131,-1,-31
,764,2018/03/15 01:36:32.27,-2414,8657,-13633,-60,75,-69,74,-135,-143,-7,-2
,765,2018/03/15 01:36:32.29,-2367,8698,-13608,-46,103,-68,68,-149,-136,-28,0
,766,2018/03/15 01:36:32.31,-2349,8680,-13588,-31,103,-39,90,-134,-129,-36,-25
,767,2018/03/15 01:36:32.33,-2363,8739,-13594,-43,87,-14,124,-130,-138,-22,-55
,768,2018/03/15 01:36:32.35,-2397,8707,-13576,-50,84,-30,107,-134,-137,-17,-38
,769,2018/03/15 01:36:32.37,-2387,8689,-13554,-51,84,-54,75,-135,-129,-16,-10
,770,2018/03/15 01:36:32.39,-2460,8682,-13583,-40,97,-73,56,-137,-129,-28,8
,771,2018/03/15 01:36:32.41,-2432,8693,-13625,-50,76,-41,82,-126,-123,-13,-20
,772,2018/03/15 01:36:32.43,-2378,8766,-13647,-52,66,-20,108,-118,-128,-7,-44
,773,2018/03/15 01:36:32.45,-2374,8772,-13630,-35,84,-6,110,-119,-116,-24,-52
,774,2018/03/15 01:36:32.47,-2386,8780,-13615,-14,98,-37,76,-112,-113,-42,-19
,775,2018/03/15 01:36:32.49,-2334,8786,-13650,-8,116,-40,86,-124,-126,-54,-23
,776,2018/03/15 01:36:32.51,-2431,8791,-13592,-21,113,-28,113,-134,-141,-46,-42
,777,2018/03/15 01:36:32.53,-2415,8800,-13587,-52,89,-22,125,-141,-147,-18,-51
,778,2018/03/15 01:36:32.55,-2402,8736,-13660,-50,86,-34,103,-136,-137,-18,-34
,779,2018/03/15 01:36:32.57,-2407,8791,-13637,-35,107,-54,84,-142,-138,-36,-15
,780,2018/03/15 01:36:32.59,-2394,8677,-13673,-21,120,-56,78,-141,-134,-49,-11
,781,2018/03/15 01:36:32.61,-2356,8585,-13630,-44,92,-40,98,-136,-138,-24,-29
,782,2018/03/15 01:36:32.63,-2381,8671,-13496,-64,72,-31,116,-136,-147,-4,-42
,783,2018/03/15 01:36:32.65,-2358,8726,-13558,-57,84,-44,94,-141,-138,-13,-25
,784,2018/03/15 01:36:32.67,-2396,8805,-13685,-39,100,-67,66,-139,-133,-30,0
,785,2018/03/15 01:36:32.69,-2425,8789,-13680,-32,108,-56,82,-140,-138,-38,-13
,786,2018/03/15 01:36:32.71,-2362,8780,-13644,-45,94,-28,111,-139,-139,-24,-41
,787,2018/03/15 01:36:32.73,-2444,8789,-13574,-52,80,-12,122,-132,-134,-14,-55
,788,2018/03/15 01:36:32.75,-2403,8817,-13586,-31,96,-31,92,-127,-123,-32,-30
,789,2018/03/15 01:36:32.77,-2423,8774,-13603,-24,109,-61,67,-133,-128,-42,-3
,790,2018/03/15 01:36:32.79,-2428,8663,-13592,-26,107,-60,72,-133,-132,-40,-6
,791,2018/03/15 01:36:32.81,-2379,8713,-13580,-61,68,-49,79,-129,-128,-3,-15
,792,2018/03/15 01:36:32.83,-2313,8749,-13541,-65,60,-28,104,-125,-132,2,-38
,793,2018/03/15 01:36:32.85,-2349,8702,-13641,-47,84,-44,87,-131,-131,-18,-21
,794,2018/03/15 01:36:32.87,-2391,8757,-13587,-24,114,-53,80,-138,-133,-45,-13
,795,2018/03/15 01:36:32.89,-2341,8729,-13608,-21,118,-32,98,-139,-130,-48,-33
,796,2018/03/15 01:36:32.91,-2343,8646,-13554,-36,90,-18,110,-126,-128,-27,-46
,797,2018/03/15 01:36:32.93,-2379,8727,-13671,-58,68,-22,109,-126,-131,-5,-43
,798,2018/03/15 01:36:32.95,-2321,8699,-13590,-20,109,-26,102,-129,-128,-44,-38
,799,2018/03/15 01:36:32.97,-2371,8754,-13670,1,135,-38,89,-134,-127,-68,-25
,800,2018/03/15 01:36:32.99,-2405,8829,-13621,-22,110,-32,102,-132,-134,-44,-35
,801,2018/03/15 01:36:33.01,-2419,8804,-13623,-45,86,-28,112,-131,-140,-20,-42
,802,2018/03/15 01:36:33.03,-2424,8873,-13609,-66,69,-42,97,-135,-139,-1,-27
,803,2018/03/15 01:36:33.05,-2447,8850,-13599,-42,96,-52,79,-138,-131,-27,-13
,804,2018/03/15 01:36:33.07,-2438,8802,-13632,-14,120,-46,81,-134,-127,-53,-17
,805,2018/03/15 01:36:33.09,-2464,8724,-13536,-33,100,-37,101,-133,-138,-33,-32
,806,2018/03/15 01:36:33.11,-2394,8644,-13587,-57,80,-28,121,-137,-149,-11,-46
,807,2018/03/15 01:36:33.13,-2485,8797,-13588,-58,91,-40,113,-149,-153,-16,-36
,808,2018/03/15 01:36:33.15,-2379,8761,-13534,-37,115,-58,85,-152,-143,-39,-13
,809,2018/03/15 01:36:33.17,-2426,8775,-13597,-27,118,-62,80,-145,-142,-45,-9
,810,2018/03/15 01:36:33.19,-2388,8734,-13605,-48,97,-27,116,-145,-143,-24,-44
,811,2018/03/15 01:36:33.21,-2414,8758,-13601,-54,78,-25,115,-132,-140,-12,-45
,812,2018/03/15 01:36:33.23,-2399,8718,-13638,-65,72,-49,96,-137,-145,-3,-23
,813,2018/03/15 01:36:33.25,-2445,8794,-13553,-31,118,-59,75,-149,-134,-43,-8
,814,2018/03/15 01:36:33.27,-2390,8817,-13593,-17,117,-40,95,-134,-135,-50,-27
,815,2018/03/15 01:36:33.29,-2367,8795,-13659,-35,106,-26,120,-141,-146,-35,-47
,816,2018/03/15 01:36:33.31,-2372,8856,-13631,-53,85,-25,120,-138,-145,-16,-47
,817,2018/03/15 01:36:33.33,-2338,8764,-13603,-58,75,-59,76,-133,-135,-8,-8
,818,2018/03/15 01:36:33.35,-2379,8766,-13625,-40,98,-67,63,-138,-130,-29,2
,819,2018/03/15 01:36:33.37,-2434,8663,-13588,-36,99,-55,79,-135,-134,-31,-12
,820,2018/03/15 01:36:33.39,-2438,8622,-13480,-50,81,-30,102,-131,-132,-15,-36
,821,2018/03/15 01:36:33.41,-2353,8698,-13530,-57,70,-24,114,-127,-138,-6,-45
,822,2018/03/15 01:36:33.43,-2450,8776,-13539,-43,108,-49,109,-151,-158,-32,-30
,823,2018/03/15 01:36:33.45,-2448,8819,-13611,-28,137,-59,99,-165,-158,-54,-20
,824,2018/03/15 01:36:33.47,-2381,8889,-13608,-34,128,-50,110,-162,-160,-47,-30
,825,2018/03/15 01:36:33.49,-2345,8845,-13622,-57,99,-30,122,-156,-152,-21,-46
,826,2018/03/15 01:36:33.51,-2360,8853,-13684,-62,79,-35,110,-141,-145,-8,-37
,827,2018/03/15 01:36:33.53,-2306,8809,-13572,-42,102,-51,90,-144,-141,-30,-19
,828,2018/03/15 01:36:33.55,-2362,8750,-13579,-30,120,-63,80,-150,-143,-45,-8
,829,2018/03/15 01:36:33.57,-2426,8639,-13659,-40,105,-50,94,-145,-144,-32,-22
,830,2018/03/15 01:36:33.59,-2355,8693,-13565,-65,77,-38,112,-142,-150,-6,-37
,831,2018/03/15 01:36:33.61,-2433,8666,-13602,-61,78,-49,86,-139,-135,-8,-18
,832,2018/03/15 01:36:33.63,-2440,8662,-13582,-54,82,-78,55,-136,-133,-14,11
,833,2018/03/15 01:36:33.65,-2394,8796,-13554,-38,105,-64,72,-143,-136,-33,-4
,834,2018/03/15 01:36:33.67,-2453,8765,-13537,-40,99,-39,98,-139,-137,-29,-29
,835,2018/03/15 01:36:33.69,-2428,8777,-13588,-48,79,-14,117,-127,-131,-15,-51
,836,2018/03/15 01:36:33.71,-2335,8722,-13601,-50,82,-30,108,-132,-138,-16,-39
,837,2018/03/15 01:36:33.73,-2402,8692,-13550,-19,120,-40,90,-139,-130,-50,-25
,838,2018/03/15 01:36:33.75,-2414,8598,-13571,-12,122,-40,89,-134,-129,-55,-24
,839,2018/03/15 01:36:33.77,-2318,8392,-13291,-28,103,-29,108,-131,-137,-37,-39
,840,2018/03/15 01:36:33.79,-2500,8030,-13207,-53,82,-19,120,-135,-139,-14,-50
,841,2018/03/15 01:36:33.81,-2374,8038,-13474,-44,83,-35,91,-127,-126,-19,-28
,842,2018/03/15 01:36:33.83,-2206,7710,-13165,-27,99,-48,77,-126,-125,-36,-14
,843,2018/03/15 01:36:33.85,-2203,7385,-13182,-21,123,-58,94,-144,-152,-51,-18
,844,2018/03/15 01:36:33.87,-1925,7536,-13415,-62,92,-58,102,-154,-160,-15,-22
,845,2018/03/15 01:36:33.89,-1687,7719,-13617,-94,63,-73,96,-157,-169,15,-11
,846,2018/03/15 01:36:33.91,-1228,8028,-13656,-90,77,-78,85,-167,-163,6,-3
,847,2018/03/15 01:36:33.93,-838,8478,-13799,-46,114,-50,96,-160,-146,-34,-23
,848,2018/03/15 01:36:33.95,-481,8647,-14009,-13,137,-40,112,-150,-152,-62,-36
,849,2018/03/15 01:36:33.97,-162,8982,-14151,-46,108,-27,134,-154,-161,-31,-53
,850,2018/03/15 01:36:33.99,209,9255,-14120,-48,107,-20,144,-155,-164,-29,-62
,851,2018/03/15 01:36:34.01,407,9304,-14293,-48,116,-50,109,-164,-159,-34,-29
,852,2018/03/15 01:36:34.03,578,8994,-14023,-40,119,-59,91,-159,-150,-39,-16
,853,2018/03/15 01:36:34.05,835,8923,-14117,-28,120,-30,122,-148,-152,-46,-46
,854,2018/03/15 01:36:34.07,869,9594,-14234,-51,95,-45,103,-146,-148,-22,-29
,855,2018/03/15 01:36:34.09,838,9424,-14138,-70,64,-45,85,-134,-130,3,-20
,856,2018/03/15 01:36:34.11,862,9557,-14109,-53,75,-59,65,-128,-124,-11,-3
,857,2018/03/15 01:36:34.13,970,9187,-14113,-23,101,-41,72,-124,-113,-39,-15
,858,2018/03/15 01:36:34.15,954,8926,-13984,-12,100,-13,102,-112,-115,-44,-44
,859,2018/03/15 01:36:34.17,1003,8835,-14121,-25,87,6,121,-112,-115,-31,-63
,860,2018/03/15 01:36:34.19,949,8880,-13897,-25,88,-15,105,-113,-120,-31,-45
,861,2018/03/15 01:36:34.21,1006,8915,-13958,-18,103,-34,82,-121,-116,-42,-24
,862,2018/03/15 01:36:34.23,989,8798,-14161,-7,115,-36,84,-122,-120,-54,-24
,863,2018/03/15 01:36:34.25,1007,8827,-14133,-32,92,-37,89,-124,-126,-30,-26
,864,2018/03/15 01:36:34.27,884,8724,-14002,-52,67,-18,103,-119,-121,-7,-42
,865,2018/03/15 01:36:34.29,945,8575,-13886,-34,77,-24,85,-111,-109,-21,-30
,866,2018/03/15 01:36:34.31,944,8453,-13897,-28,83,-54,59,-111,-113,-27,-2
,867,2018/03/15 01:36:34.33,812,8694,-13989,-29,94,-56,68,-123,-124,-32,-6
,868,2018/03/15 01:36:34.35,768,8449,-13871,-42,86,-20,110,-128,-130,-22,-45
,869,2018/03/15 01:36:34.37,600,8451,-13937,-43,84,-21,116,-127,-137,-20,-47
,870,2018/03/15 01:36:34.39,582,8498,-13931,-47,88,-36,98,-135,-134,-20,-31
,871,2018/03/15 01:36:34.41,571,8448,-13827,-22,118,-48,89,-140,-137,-48,-20
,872,2018/03/15 01:36:34.43,553,8659,-13894,-16,130,-44,103,-146,-147,-57,-29
,873,2018/03/15 01:36:34.45,546,8594,-13890,-39,112,-29,121,-151,-150,-36,-46
,874,2018/03/15 01:36:34.47,597,8643,-13925,-45,97,-18,122,-142,-140,-26,-52
,875,2018/03/15 01:36:34.49,546,8543,-13987,-50,92,-49,99,-142,-148,-21,-25
,876,2018/03/15 01:36:34.51,557,8610,-13912,-27,121,-53,83,-148,-136,-47,-15
,877,2018/03/15 01:36:34.53,561,8649,-13942,-34,109,-55,88,-143,-143,-37,-16
,878,2018/03/15 01:36:34.55,551,7979,-13878,-64,82,-53,95,-146,-148,-9,-21
,879,2018/03/15 01:36:34.57,565,8552,-14079,-83,53,-62,75,-136,-137,15,-6
,880,2018/03/15 01:36:34.59,404,8726,-13980,-83,58,-94,44,-141,-138,12,25
,881,2018/03/15 01:36:34.61,316,8922,-14154,-70,61,-92,19,-131,-111,4,36
,882,2018/03/15 01:36:34.63,189,8732,-13877,-63,42,-71,39,-105,-110,10,16
,883,2018/03/15 01:36:34.65,145,8604,-13733,-78,37,-41,74,-115,-115,20,-16
,884,2018/03/15 01:36:34.67,189,8692,-13692,-60,52,-36,81,-112,-117,4,-22
,885,2018/03/15 01:36:34.69,136,8533,-13770,-40,75,-34,72,-115,-106,-17,-19
,886,2018/03/15 01:36:34.71,129,8296,-13800,10,120,-10,99,-110,-109,-65,-44
,887,2018/03/15 01:36:34.73,106,8423,-13866,17,139,11,145,-122,-134,-78,-78
,888,2018/03/15 01:36:34.75,-22,8431,-13766,-16,122,-4,140,-138,-144,-53,-68
,889,2018/03/15 01:36:34.77,-21,8526,-13893,-44,94,-26,110,-138,-136,-25,-42
,890,2018/03/15 01:36:34.79,-54,8673,-13944,-26,109,-38,92,-135,-130,-41,-27
,891,2018/03/15 01:36:34.81,-13,8765,-14001,-7,127,-32,92,-134,-124,-60,-30
,892,2018/03/15 01:36:34.83,40,8597,-13731,-20,107,-20,112,-127,-132,-43,-46
,893,2018/03/15 01:36:34.85,-56,7798,-13625,-52,76,-14,125,-128,-139,-12,-55
,894,2018/03/15 01:36:34.87,-74,8547,-14214,-33,100,-17,119,-133,-136,-33,-51
,895,2018/03/15 01:36:34.89,-80,8820,-13645,-16,121,-39,92,-137,-131,-52,-26
,896,2018/03/15 01:36:34.91,-125,9113,-13923,-16,122,-43,94,-138,-137,-53,-25
,897,2018/03/15 01:36:34.93,-209,8832,-13960,-30,108,-24,115,-138,-139,-39,-45
,898,2018/03/15 01:36:34.95,-253,8802,-13743,-47,86,-23,119,-133,-142,-19,-48
,899,2018/03/15 01:36:34.97,-320,8792,-13673,-50,91,-43,101,-141,-144,-20,-29
,900,2018/03/15 01:36:34.99,-286,8904,-13773,-40,108,-69,70,-148,-139,-34,0
,901,2018/03/15 01:36:35.01,-381,8950,-13839,-36,105,-56,81,-141,-137,-34,-12
,902,2018/03/15 01:36:35.03,-410,8746,-13828,-47,87,-35,107,-134,-142,-20,-36
,903,2018/03/15 01:36:35.05,-412,8819,-13836,-67,73,-46,100,-140,-146,-3,-27
,904,2018/03/15 01:36:35.07,-390,8834,-13788,-63,75,-60,75,-138,-135,-6,-7
,905,2018/03/15 01:36:35.09,-434,8836,-13777,-45,96,-66,67,-141,-133,-25,0
,906,2018/03/15 01:36:35.11,-532,8652,-13751,-31,98,-44,81,-129,-125,-33,-18
,907,2018/03/15 01:36:35.13,-530,8712,-13804,-46,84,-32,103,-130,-135,-19,-35
,908,2018/03/15 01:36:35.15,-486,8754,-13719,-66,64,-44,92,-130,-136,1,-24
,909,2018/03/15 01:36:35.17,-547,8657,-13714,-59,75,-62,71,-134,-133,-8,-4
,910,2018/03/15 01:36:35.19,-605,8892,-13837,-37,106,-70,68,-143,-138,-34,1
,911,2018/03/15 01:36:35.21,-593,8747,-13691,-49,97,-67,87,-146,-154,-24,-10
,912,2018/03/15 01:36:35.23,-692,8645,-13613,-85,65,-73,79,-150,-152,10,-3
,913,2018/03/15 01:36:35.25,-582,8895,-13786,-94,48,-72,67,-142,-139,23,2
,914,2018/03/15 01:36:35.27,-693,8985,-13787,-75,60,-81,39,-135,-120,7,21
,915,2018/03/15 01:36:35.29,-819,8701,-13834,-54,74,-79,44,-128,-123,-10,17
,916,2018/03/15 01:36:35.31,-719,9000,-13897,-53,66,-58,54,-119,-112,-6,2
,917,2018/03/15 01:36:35.33,-827,8905,-13654,-71,36,-42,72,-107,-114,17,-15
,918,2018/03/15 01:36:35.35,-981,9124,-13889,-55,47,-24,81,-102,-105,4,-28
,919,2018/03/15 01:36:35.37,-691,9137,-13561,-12,97,-21,85,-109,-106,-42,-32
,920,2018/03/15 01:36:35.39,-677,9166,-13677,6,123,-21,92,-117,-113,-64,-35
,921,2018/03/15 01:36:35.41,-732,9053,-13705,3,118,4,122,-115,-118,-60,-63
,922,2018/03/15 01:36:35.43,-709,8927,-13852,-20,97,4,127,-117,-123,-38,-65
,923,2018/03/15 01:36:35.45,-796,9156,-13705,-28,93,-12,111,-121,-123,-32,-49
,924,2018/03/15 01:36:35.47,-749,9130,-13650,4,124,-18,89,-120,-107,-64,-35
,925,2018/03/15 01:36:35.49,-822,9127,-13559,6,110,-19,77,-104,-96,-58,-29
,926,2018/03/15 01:36:35.51,-775,8763,-13052,-5,92,0,108,-97,-108,-43,-54
,927,2018/03/15 01:36:35.53,-1229,9129,-13854,-32,76,-17,96,-108,-113,-22,-39
,928,2018/03/15 01:36:35.55,-1074,9429,-13567,-48,61,-32,84,-109,-116,-6,-26
,929,2018/03/15 01:36:35.57,-1194,9276,-13358,-4,124,-26,100,-128,-126,-60,-37
,930,2018/03/15 01:36:35.59,-1367,8888,-13551,-2,131,-33,99,-133,-132,-64,-33
,931,2018/03/15 01:36:35.61,-1657,8856,-13759,-35,98,-24,114,-133,-138,-31,-45
,932,2018/03/15 01:36:35.63,-1602,8985,-13602,-53,79,-31,111,-132,-142,-13,-40
,933,2018/03/15 01:36:35.65,-1649,8891,-13571,-54,90,-45,102,-144,-147,-18,-28
,934,2018/03/15 01:36:35.67,-1751,8644,-13401,-30,125,-53,91,-155,-144,-47,-19
,935,2018/03/15 01:36:35.69,-1933,8619,-13470,-22,120,-50,103,-142,-153,-49,-26
,936,2018/03/15 01:36:35.71,-1999,8527,-13612,-54,105,-36,131,-159,-167,-25,-47
,937,2018/03/15 01:36:35.73,-2033,8714,-13465,-52,112,-16,153,-164,-169,-30,-68
,938,2018/03/15 01:36:35.75,-2060,8807,-13487,-23,142,-30,132,-165,-162,-59,-51
,939,2018/03/15 01:36:35.77,-2303,8923,-13572,-9,161,-37,126,-170,-163,-76,-44
,940,2018/03/15 01:36:35.79,-2311,8828,-13597,1,165,0,162,-164,-162,-83,-81
,941,2018/03/15 01:36:35.81,-2276,8923,-13627,-4,152,18,182,-156,-164,-74,-100
,942,2018/03/15 01:36:35.83,-2432,8964,-13700,-18,143,3,162,-161,-159,-62,-82
,943,2018/03/15 01:36:35.85,-2290,9026,-13776,-11,142,-34,116,-153,-150,-65,-41
,944,2018/03/15 01:36:35.87,-2384,8614,-13167,-19,143,-60,96,-162,-156,-62,-18
,945,2018/03/15 01:36:35.89,-2511,8570,-13610,-44,112,-53,99,-156,-152,-34,-23
,946,2018/03/15 01:36:35.91,-2522,8755,-13663,-76,70,-59,90,-146,-149,3,-15
,947,2018/03/15 01:36:35.93,-2597,8860,-13399,-99,41,-83,59,-140,-142,29,12
,948,2018/03/15 01:36:35.95,-2604,8719,-13608,-84,54,-103,26,-138,-129,15,38
,949,2018/03/15 01:36:35.97,-2800,8972,-13692,-72,56,-102,19,-128,-121,8,41
,950,2018/03/15 01:36:35.99,-2733,9011,-13426,-88,28,-79,33,-116,-112,30,23
,951,2018/03/15 01:36:36.01,-2675,8933,-13260,-89,18,-53,59,-107,-112,35,-3
,952,2018/03/15 01:36:36.03,-2650,8316,-13057,-56,54,-3,110,-110,-113,1,-53
,953,2018/03/15 01:36:36.05,-2799,8916,-13466,20,133,-14,91,-113,-105,-76,-38
,954,2018/03/15 01:36:36.07,-2866,8575,-13354,5,115,-21,84,-110,-105,-60,-31
,955,2018/03/15 01:36:36.09,-2847,8641,-13372,-4,106,10,117,-110,-107,-51,-63
,956,2018/03/15 01:36:36.11,-2890,8619,-13386,-23,80,-1,108,-103,-109,-28,-53
,957,2018/03/15 01:36:36.13,-2915,8549,-13341,-37,68,-31,76,-105,-107,-15,-22
,958,2018/03/15 01:36:36.15,-2920,8590,-13368,-29,89,-70,43,-118,-113,-30,13
,959,2018/03/15 01:36:36.17,-2923,8520,-13467,-36,85,-62,61,-121,-123,-24,0
,960,2018/03/15 01:36:36.19,-2816,8531,-13466,-59,67,-44,88,-126,-132,-4,-22
,961,2018/03/15 01:36:36.21,-2897,8735,-13535,-72,54,-48,83,-126,-131,9,-17
,962,2018/03/15 01:36:36.23,-2928,9268,-13360,-66,63,-59,72,-129,-131,1,-6
,963,2018/03/15 01:36:36.25,-2968,8917,-13200,-40,98,-76,61,-138,-137,-29,7
,964,2018/03/15 01:36:36.27,-2992,8840,-13527,-50,96,-59,83,-146,-142,-23,-12
,965,2018/03/15 01:36:36.29,-2873,8710,-13483,-63,75,-48,96,-138,-144,-6,-24
,966,2018/03/15 01:36:36.31,-2858,8917,-13437,-72,65,-43,100,-137,-143,3,-28
,967,2018/03/15 01:36:36.33,-2923,8926,-13405,-60,87,-73,78,-147,-151,-13,-2
,968,2018/03/15 01:36:36.35,-2929,9017,-13416,-54,102,-80,71,-156,-151,-24,4
,969,2018/03/15 01:36:36.37,-2922,9053,-13521,-57,100,-68,87,-157,-155,-21,-9
,970,2018/03/15 01:36:36.39,-2863,8974,-13207,-71,77,-41,106,-148,-147,-3,-32
,971,2018/03/15 01:36:36.41,-2862,8861,-13415,-69,70,-49,96,-139,-145,0,-23
,972,2018/03/15 01:36:36.43,-2910,8811,-13575,-59,88,-66,76,-147,-142,-14,-5
,973,2018/03/15 01:36:36.45,-2906,8876,-13326,-39,108,-64,78,-147,-142,-34,-7
,974,2018/03/15 01:36:36.47,-2906,8952,-13332,-48,98,-47,96,-146,-143,-25,-24
,975,2018/03/15 01:36:36.49,-2885,8990,-13352,-58,75,-24,114,-133,-138,-8,-45
,976,2018/03/15 01:36:36.51,-3039,8899,-13481,-46,89,-33,110,-135,-143,-21,-38
,977,2018/03/15 01:36:36.53,-2920,8968,-13410,-33,105,-50,76,-138,-126,-36,-13
,978,2018/03/15 01:36:36.55,-3025,9136,-13428,-7,125,-30,96,-132,-126,-59,-33
,979,2018/03/15 01:36:36.57,-2938,8962,-13480,-24,107,-33,103,-131,-136,-41,-35
,980,2018/03/15 01:36:36.59,-2861,8664,-13303,-58,76,-24,119,-134,-143,-9,-47
,981,2018/03/15 01:36:36.61,-2900,9400,-13308,-32,107,-5,130,-139,-135,-37,-62
,982,2018/03/15 01:36:36.63,-2832,8932,-13526,-5,133,-34,109,-138,-143,-64,-37
,983,2018/03/15 01:36:36.65,-2896,9047,-13425,-18,139,-50,107,-157,-157,-60,-28
,984,2018/03/15 01:36:36.67,-2878,8807,-13411,-38,119,-26,132,-157,-158,-40,-53
,985,2018/03/15 01:36:36.69,-2903,8758,-13348,-44,105,-15,145,-149,-160,-30,-65
,986,2018/03/15 01:36:36.71,-2860,8724,-13466,-36,126,-19,137,-162,-156,-45,-59
,987,2018/03/15 01:36:36.73,-2856,8798,-13341,1,152,-32,110,-151,-142,-76,-39
,988,2018/03/15 01:36:36.75,-2764,8420,-13284,-16,129,-48,95,-145,-143,-56,-23
,989,2018/03/15 01:36:36.77,-2778,8760,-13498,-53,93,-42,107,-146,-149,-20,-32
,990,2018/03/15 01:36:36.79,-2801,8890,-13538,-76,70,-66,89,-146,-155,3,-11
,991,2018/03/15 01:36:36.81,-2791,8764,-13417,-102,53,-95,55,-155,-150,24,20
,992,2018/03/15 01:36:36.83,-2888,9187,-13781,-54,97,-42,104,-151,-146,-21,-31
,993,2018/03/15 01:36:36.85,-2944,9464,-13501,-41,113,-263,-127,-154,-136,-36,195
,994,2018/03/15 01:36:36.87,-2819,9224,-13469,-434,-317,-380,-264,-117,-116,375,322
,995,2018/03/15 01:36:36.89,-2718,9153,-13219,-256,-145,-97,18,-111,-115,200,39
,996,2018/03/15 01:36:36.91,-2745,9064,-13291,-72,43,-94,12,-115,-106,14,41
,997,2018/03/15 01:36:36.93,-2831,8914,-13416,-64,52,-80,31,-116,-111,6,24
,998,2018/03/15 01:36:36.95,-2732,8910,-13433,-45,73,-140,-21,-118,-119,-14,80
,999,2018/03/15 01:36:36.97,-2770,8852,-13425,-237,-120,-241,-118,-117,-123,178,179
,1000,2018/03/15 01:36:36.99,-2776,8908,-13362,-267,-147,-212,-89,-120,-123,207,150
,1001,2018/03/15 01:36:37.01,-2704,8811,-13336,-180,-63,-170,-61,-117,-109,121,115
,1002,2018/03/15 01:36:37.03,-2691,8749,-13296,-115,0,-111,-1,-115,-110,57,56
,1003,2018/03/15 01:36:37.05,-2728,8742,-13290,-64,55,-53,76,-119,-129,4,-11
,1004,2018/03/15 01:36:37.07,-2540,8873,-13379,-46,84,22,161,-130,-139,-19,-91
,1005,2018/03/15 01:36:37.09,-3045,8763,-13733,8,146,28,170,-138,-142,-77,-99
,1006,2018/03/15 01:36:37.11,-3064,8860,-13608,20,162,20,157,-142,-137,-91,-88
,1007,2018/03/15 01:36:37.13,-2831,9161,-13336,73,213,44,185,-140,-141,-143,-114
,1008,2018/03/15 01:36:37.15,-2707,9017,-13420,54,204,45,199,-150,-154,-129,-122
,1009,2018/03/15 01:36:37.17,-2623,8854,-13434,2,150,21,175,-148,-154,-76,-98
,1010,2018/03/15 01:36:37.19,-2656,8838,-13208,-21,132,-13,140,-153,-153,-55,-63
,1011,2018/03/15 01:36:37.21,-2569,9026,-13377,-8,146,-30,117,-154,-147,-69,-43
,1012,2018/03/15 01:36:37.23,-2575,9071,-13442,8,160,-8,139,-152,-147,-84,-65
,1013,2018/03/15 01:36:37.25,-2634,9018,-13489,22,171,57,213,-149,-156,-96,-135
,1014,2018/03/15 01:36:37.27,-2666,9099,-13315,42,192,81,235,-150,-154,-117,-158
,1015,2018/03/15 01:36:37.29,-2676,9099,-13368,55,200,65,207,-145,-142,-127,-136
,1016,2018/03/15 01:36:37.31,-2584,9089,-13410,73,216,29,163,-143,-134,-144,-96
,1017,2018/03/15 01:36:37.33,-2570,9056,-13486,44,179,-9,125,-135,-134,-111,-58
,1018,2018/03/15 01:36:37.35,-2615,9012,-13450,-21,112,-14,124,-133,-138,-45,-55
,1019,2018/03/15 01:36:37.37,-2475,8506,-13203,-56,76,-40,100,-132,-140,-10,-30
,1020,2018/03/15 01:36:37.39,-2462,8985,-13463,-73,68,-88,58,-141,-146,2,15
,1021,2018/03/15 01:36:37.41,-2548,9033,-13167,-74,80,-112,32,-154,-144,-3,40
,1022,2018/03/15 01:36:37.43,-2654,9264,-13745,-84,63,-106,34,-147,-140,10,36
,1023,2018/03/15 01:36:37.45,-2851,9670,-13909,-118,17,-87,45,-135,-132,50,21
,1024,2018/03/15 01:36:37.47,-2906,9202,-12799,-90,23,-37,77,-113,-114,33,-20
,1025,2018/03/15 01:36:37.49,-2546,8813,-13198,-14,101,-11,100,-115,-111,-43,-44
,1026,2018/03/15 01:36:37.51,-2546,8853,-13374,-25,91,-115,-4,-116,-111,-33,59
,1027,2018/03/15 01:36:37.53,-2616,8965,-13440,-120,-1,-132,-8,-119,-124,60,70
,1028,2018/03/15 01:36:37.55,-2595,9058,-13432,-134,-7,-85,48,-127,-133,70,18
,1029,2018/03/15 01:36:37.57,-2665,9034,-13434,-100,27,-64,67,-127,-131,36,-1
,1030,2018/03/15 01:36:37.59,-2640,9024,-13409,-62,72,-87,48,-134,-135,-5,19
,1031,2018/03/15 01:36:37.61,-2682,8947,-13273,-63,80,-85,49,-143,-134,-8,18
,1032,2018/03/15 01:36:37.63,-2596,8794,-13251,-56,80,-52,89,-136,-141,-12,-18
,1033,2018/03/15 01:36:37.65,-2690,8605,-13661,-60,85,-17,133,-145,-150,-12,-58
,1034,2018/03/15 01:36:37.67,-2633,10242,-13859,-46,90,-32,100,-136,-132,-22,-34
,1035,2018/03/15 01:36:37.69,-2832,9383,-13003,-18,122,-20,122,-140,-142,-52,-51
,1036,2018/03/15 01:36:37.71,-2806,8963,-13208,17,170,-12,130,-153,-142,-93,-59
,1037,2018/03/15 01:36:37.73,-2828,8861,-13332,8,149,21,159,-141,-138,-78,-90
,1038,2018/03/15 01:36:37.75,-2733,9001,-13454,-20,118,-1,146,-138,-147,-49,-72
,1039,2018/03/15 01:36:37.77,-2679,8925,-13415,-39,110,-16,136,-149,-152,-35,-60
,1040,2018/03/15 01:36:37.79,-2624,9099,-13439,3,154,-18,124,-151,-142,-78,-53
,1041,2018/03/15 01:36:37.81,-2658,9064,-13335,18,166,0,144,-148,-144,-92,-72
,1042,2018/03/15 01:36:37.83,-2687,9351,-13474,8,154,22,171,-146,-149,-81,-96
,1043,2018/03/15 01:36:37.85,-2657,9088,-13393,-5,142,23,180,-147,-157,-68,-101
,1044,2018/03/15 01:36:37.87,-2631,9049,-13353,-6,146,5,146,-152,-141,-70,-75
,1045,2018/03/15 01:36:37.89,-2713,8916,-13342,48,195,34,179,-147,-145,-121,-106
,1046,2018/03/15 01:36:37.91,-2738,8886,-13388,42,192,-13,132,-150,-145,-117,-59
,1047,2018/03/15 01:36:37.93,-2780,9108,-13236,-41,102,-72,74,-143,-146,-30,-1
,1048,2018/03/15 01:36:37.95,-2755,9054,-13295,-143,-8,-114,29,-135,-143,75,42
,1049,2018/03/15 01:36:37.97,-2771,9083,-13428,-121,22,-98,40,-143,-138,49,29
,1050,2018/03/15 01:36:37.99,-2741,9172,-13402,-37,98,-54,70,-135,-124,-30,-8
,1051,2018/03/15 01:36:38.01,-2690,9086,-13318,-19,109,-42,87,-128,-129,-45,-22
,1052,2018/03/15 01:36:38.03,-2635,9212,-13275,-56,75,-30,108,-131,-138,-9,-39
,1053,2018/03/15 01:36:38.05,-2609,9194,-13330,-64,70,-28,110,-134,-138,-3,-41
,1054,2018/03/15 01:36:38.07,-2689,9090,-13353,-30,112,-34,109,-142,-143,-41,-37
,1055,2018/03/15 01:36:38.09,-2623,9020,-13361,2,153,-25,121,-151,-146,-77,-48
,1056,2018/03/15 01:36:38.11,-2561,9047,-13315,12,160,19,169,-148,-150,-86,-94
,1057,2018/03/15 01:36:38.13,-2646,8834,-13288,23,166,64,212,-143,-148,-94,-138
,1058,2018/03/15 01:36:38.15,-2774,9079,-13548,36,172,52,189,-136,-137,-104,-120
,1059,2018/03/15 01:36:38.17,-2644,9334,-13335,45,180,30,155,-135,-125,-112,-92
,1060,2018/03/15 01:36:38.19,-2631,8823,-12879,56,188,1,128,-132,-127,-122,-64
,1061,2018/03/15 01:36:38.21,-2758,8920,-13383,-7,116,-15,112,-123,-127,-54,-48
,1062,2018/03/15 01:36:38.23,-2802,8801,-13414,-44,73,-31,88,-117,-119,-14,-28
,1063,2018/03/15 01:36:38.25,-2978,9335,-13456,-85,30,-86,20,-115,-106,27,33
,1064,2018/03/15 01:36:38.27,-2402,9377,-13385,-76,28,-62,35,-104,-97,24,13
,1065,2018/03/15 01:36:38.29,-2491,9277,-13097,11,122,-2,121,-111,-123,-66,-59
,1066,2018/03/15 01:36:38.31,-2629,9023,-13321,12,144,14,142,-132,-128,-78,-78
,1067,2018/03/15 01:36:38.33,-2580,9005,-13353,-20,90,-10,100,-110,-110,-35,-45
,1068,2018/03/15 01:36:38.35,-2702,8949,-13403,-64,44,-63,56,-108,-119,10,3
,1069,2018/03/15 01:36:38.37,-2639,8922,-13276,-50,79,-71,50,-129,-121,-14,10
,1070,2018/03/15 01:36:38.39,-2555,8950,-13283,-35,85,-61,56,-120,-117,-25,2
,1071,2018/03/15 01:36:38.41,-2563,8972,-13297,-58,64,-44,88,-122,-132,-3,-22
,1072,2018/03/15 01:36:38.43,-2360,8861,-13170,-66,68,-26,114,-134,-140,-1,-44
,1073,2018/03/15 01:36:38.45,-2619,9104,-13648,-40,98,-36,101,-138,-137,-29,-32
,1074,2018/03/15 01:36:38.47,-2654,9892,-13443,-29,114,-68,71,-143,-139,-42,-1
,1075,2018/03/15 01:36:38.49,-2689,9383,-13002,-30,117,-30,108,-147,-138,-43,-39
,1076,2018/03/15 01:36:38.51,-2741,9064,-13298,-22,115,3,145,-137,-142,-46,-74
,1077,2018/03/15 01:36:38.53,-2645,8985,-13378,-35,113,-7,143,-148,-150,-39,-68
,1078,2018/03/15 01:36:38.55,-2692,9014,-13414,-28,119,-30,112,-147,-142,-45,-41
,1079,2018/03/15 01:36:38.57,-2665,9254,-13422,-16,128,-42,94,-144,-136,-56,-26
,1080,2018/03/15 01:36:38.59,-2666,9320,-13356,-7,135,-18,127,-142,-145,-64,-54
,1081,2018/03/15 01:36:38.61,-2629,9283,-13395,-29,112,-1,139,-141,-140,-41,-69
,1082,2018/03/15 01:36:38.63,-2616,9170,-13253,-30,104,-5,137,-134,-142,-37,-66
,1083,2018/03/15 01:36:38.65,-2664,9030,-13163,-17,121,-24,103,-138,-127,-52,-39
,1084,2018/03/15 01:36:38.67,-2683,9072,-13189,4,139,-27,111,-135,-138,-71,-42
,1085,2018/03/15 01:36:38.69,-2644,9003,-13377,-2,141,-11,129,-143,-140,-69,-59
,1086,2018/03/15 01:36:38.71,-2614,9137,-13433,-28,104,-8,127,-132,-135,-38,-59
,1087,2018/03/15 01:36:38.73,-2590,9193,-13353,-44,87,-23,113,-131,-136,-21,-45
,1088,2018/03/15 01:36:38.75,-2534,9196,-13391,-20,118,-26,107,-138,-133,-49,-40
,1089,2018/03/15 01:36:38.77,-2611,9172,-13390,5,144,-31,106,-139,-137,-74,-37
,1090,2018/03/15 01:36:38.79,-2620,9120,-13418,-19,122,-24,124,-141,-148,-51,-50
,1091,2018/03/15 01:36:38.81,-2594,9121,-13311,-34,107,-4,139,-141,-143,-36,-67
,1092,2018/03/15 01:36:38.83,-2605,9038,-13334,-40,91,-34,96,-131,-130,-25,-31
,1093,2018/03/15 01:36:38.85,-2598,9004,-13351,-33,99,-55,75,-132,-130,-33,-10
,1094,2018/03/15 01:36:38.87,-2664,9047,-13361,-30,107,-52,82,-137,-134,-38,-15
,1095,2018/03/15 01:36:38.89,-2610,9070,-13358,-28,106,-20,116,-134,-136,-39,-48
,1096,2018/03/15 01:36:38.91,-2645,9009,-13300,-46,86,-25,112,-132,-137,-20,-43
,1097,2018/03/15 01:36:38.93,-2627,9022,-13297,-51,78,-42,92,-129,-134,-13,-25
,1098,2018/03/15 01:36:38.95,-2635,8992,-13407,-16,122,-39,96,-138,-135,-53,-28
,1099,2018/03/15 01:36:38.97,-2568,8980,-13330,-10,127,-48,88,-137,-136,-58,-20
,1100,2018/03/15 01:36:38.99,-2534,8970,-13402,-43,90,-27,106,-133,-133,-23,-39
,1101,2018/03/15 01:36:39.01,-2660,9100,-13438,-48,81,-19,115,-129,-134,-16,-48
,1102,2018/03/15 01:36:39.03,-2649,9070,-13355,-38,93,-39,92,-131,-131,-27,-26
,1103,2018/03/15 01:36:39.05,-2588,9157,-13376,-27,111,-55,78,-138,-133,-42,-11
,1104,2018/03/15 01:36:39.07,-2673,9128,-13324,-26,113,-35,102,-139,-137,-43,-33
,1105,2018/03/15 01:36:39.09,-2716,9229,-13453,-26,108,-12,127,-134,-139,-41,-57
,1106,2018/03/15 01:36:39.11,-2698,9128,-13321,-45,90,-22,117,-135,-139,-22,-47
,1107,2018/03/15 01:36:39.13,-2610,8900,-13351,-41,96,-46,92,-137,-138,-27,-23
,1108,2018/03/15 01:36:39.15,-2685,8881,-13388,-24,117,-52,80,-141,-132,-46,-14
,1109,2018/03/15 01:36:39.17,-2566,8935,-13315,-35,103,-49,87,-138,-136,-34,-19
,1110,2018/03/15 01:36:39.19,-2549,9028,-13398,-48,79,-26,105,-127,-131,-15,-39
,1111,2018/03/15 01:36:39.21,-2563,9050,-13335,-55,70,-36,97,-125,-133,-7,-30
,1112,2018/03/15 01:36:39.23,-2596,9052,-13334,-45,92,-56,77,-137,-133,-23,-10
,1113,2018/03/15 01:36:39.25,-2560,9035,-13397,-37,101,-68,68,-138,-136,-32,0
,1114,2018/03/15 01:36:39.27,-2622,9022,-13347,-48,96,-55,87,-144,-142,-24,-16
,1115,2018/03/15 01:36:39.29,-2647,9010,-13294,-65,70,-36,100,-135,-136,-2,-32
,1116,2018/03/15 01:36:39.31,-2604,9078,-13354,-60,71,-35,95,-131,-130,-5,-30
,1117,2018/03/15 01:36:39.33,-2563,9038,-13377,-42,91,-66,66,-133,-132,-24,0
,1118,2018/03/15 01:36:39.35,-2683,9012,-13261,-58,84,-70,58,-142,-128,-13,6
,1119,2018/03/15 01:36:39.37,-2691,9160,-13217,-52,75,-45,85,-127,-130,-11,-20
,1120,2018/03/15 01:36:39.39,-2663,9142,-13252,-70,57,-47,81,-127,-128,6,-17
,1121,2018/03/15 01:36:39.41,-2637,9180,-13428,-83,32,-66,47,-115,-113,25,9
,1122,2018/03/15 01:36:39.43,-2628,9228,-13458,-56,57,-76,35,-113,-111,0,20
,1123,2018/03/15 01:36:39.45,-2599,9233,-13378,-55,73,-87,39,-128,-126,-9,24
,1124,2018/03/15 01:36:39.47,-2534,9240,-13330,-71,54,-53,74,-125,-127,8,-10
,1125,2018/03/15 01:36:39.49,-2614,9171,-13327,-67,61,-42,96,-128,-138,3,-27
,1126,2018/03/15 01:36:39.51,-2565,9119,-13368,-65,67,-57,70,-132,-127,-1,-6
,1127,2018/03/15 01:36:39.53,-2595,9043,-13376,-48,79,-68,56,-127,-124,-15,6
,1128,2018/03/15 01:36:39.55,-2477,8892,-13311,-35,98,-48,86,-133,-134,-31,-19
,1129,2018/03/15 01:36:39.57,-2602,8912,-13428,-36,96,-26,111,-132,-137,-30,-42
,1130,2018/03/15 01:36:39.59,-2506,8811,-13333,-56,75,-36,104,-131,-140,-9,-34
,1131,2018/03/15 01:36:39.61,-2374,8754,-13378,-62,73,-61,70,-135,-131,-5,-4
,1132,2018/03/15 01:36:39.63,-2410,8957,-13524,-35,99,-50,83,-134,-133,-32,-16
,1133,2018/03/15 01:36:39.65,-2439,8951,-13611,-24,118,-42,102,-142,-144,-47,-30
,1134,2018/03/15 01:36:39.67,-2422,8804,-13769,-50,93,-36,112,-143,-148,-21,-38
,1135,2018/03/15 01:36:39.69,-2410,8695,-13831,-57,81,-30,112,-138,-142,-12,-41
,1136,2018/03/15 01:36:39.71,-2432,8569,-13903,-44,94,-49,84,-138,-133,-25,-17
,1137,2018/03/15 01:36:39.73,-2367,8554,-13996,-24,111,-56,72,-135,-128,-43,-8
,1138,2018/03/15 01:36:39.75,-2396,8385,-13997,-33,94,-55,68,-127,-123,-30,-6
,1139,2018/03/15 01:36:39.77,-2277,8309,-14060,-55,67,-37,94,-122,-131,-6,-28
,1140,2018/03/15 01:36:39.79,-2207,8106,-14054,-65,62,-55,77,-127,-132,1,-11
,1141,2018/03/15 01:36:39.81,-2220,7971,-14150,-64,70,-73,55,-134,-128,-3,9
,1142,2018/03/15 01:36:39.83,-2164,7866,-14193,-43,89,-63,63,-132,-126,-23,0
,1143,2018/03/15 01:36:39.85,-2092,7743,-14283,-42,90,-54,77,-132,-131,-24,-11
,1144,2018/03/15 01:36:39.87,-2068,7584,-14275,-70,53,-52,77,-123,-129,8,-12
,1145,2018/03/15 01:36:39.89,-2109,7548,-14249,-78,51,-55,80,-129,-135,13,-12
,1146,2018/03/15 01:36:39.91,-2126,7586,-14130,-51,84,-56,74,-135,-130,-16,-9
,1147,2018/03/15 01:36:39.93,-2082,7523,-14335,-22,110,-44,80,-132,-124,-44,-18
,1148,2018/03/15 01:36:39.95,-2076,7504,-14350,-30,95,-37,92,-125,-129,-32,-27
,1149,2018/03/15 01:36:39.97,-2126,7519,-14354,-55,69,-27,101,-124,-128,-7,-37
,1150,2018/03/15 01:36:39.99,-2088,7497,-14370,-48,79,-27,103,-127,-130,-15,-38
,1151,2018/03/15 01:36:40.01,-2076,7524,-14464,-17,115,-27,102,-132,-129,-49,-37
,1152,2018/03/15 01:36:40.03,-2067,7378,-14446,8,139,-12,112,-131,-124,-73,-50
,1153,2018/03/15 01:36:40.05,-2083,7370,-14316,-7,120,-5,126,-127,-131,-56,-60
,1154,2018/03/15 01:36:40.07,-2123,7563,-14327,-31,92,2,128,-123,-126,-30,-65
,1155,2018/03/15 01:36:40.09,-2034,7527,-14338,-14,110,-1,124,-124,-125,-48,-61
,1156,2018/03/15 01:36:40.11,-2075,7621,-14478,6,135,-23,102,-129,-125,-70,-39
,1157,2018/03/15 01:36:40.13,-2104,7561,-14402,-8,125,-32,98,-133,-130,-58,-33
,1158,2018/03/15 01:36:40.15,-2109,7591,-14329,-32,98,-24,108,-130,-132,-33,-42
,1159,2018/03/15 01:36:40.17,-2060,7658,-14256,-57,69,-23,101,-126,-124,-6,-39
,1160,2018/03/15 01:36:40.19,-2084,7644,-14281,-37,84,-30,93,-121,-123,-23,-31
,1161,2018/03/15 01:36:40.21,-2121,7638,-14246,-20,109,-46,70,-129,-116,-44,-12
,1162,2018/03/15 01:36:40.23,-2100,7600,-14251,-25,95,-43,81,-120,-124,-35,-19
,1163,2018/03/15 01:36:40.25,-2118,7672,-14303,-44,79,-24,104,-123,-128,-17,-40
,1164,2018/03/15 01:36:40.27,-2142,7611,-14262,-41,81,-16,113,-122,-129,-20,-48
,1165,2018/03/15 01:36:40.29,-2204,7658,-14220,-32,98,-40,91,-130,-131,-33,-25
,1166,2018/03/15 01:36:40.31,-2118,7705,-14255,-28,105,-61,69,-133,-130,-38,-4
,1167,2018/03/15 01:36:40.33,-2158,7745,-14136,-41,102,-46,99,-143,-145,-30,-26
,1168,2018/03/15 01:36:40.35,-2142,7743,-14232,-51,90,-30,112,-141,-142,-19,-41
,1169,2018/03/15 01:36:40.37,-2097,7758,-14259,-59,73,-46,91,-132,-137,-7,-22
,1170,2018/03/15 01:36:40.39,-2077,7788,-14209,-55,82,-61,71,-137,-132,-13,-5
,1171,2018/03/15 01:36:40.41,-2128,7854,-14260,-35,101,-57,70,-136,-127,-33,-6
,1172,2018/03/15 01:36:40.43,-2152,7896,-14237,-37,91,-42,92,-128,-134,-27,-25
,1173,2018/03/15 01:36:40.45,-2147,7908,-14138,-62,78,-48,100,-140,-148,-8,-26
,1174,2018/03/15 01:36:40.47,-2163,7877,-14172,-71,67,-46,88,-138,-134,2,-21
,1175,2018/03/15 01:36:40.49,-2131,7875,-14171,-42,90,-53,74,-132,-127,-24,-10
,1176,2018/03/15 01:36:40.51,-2147,7763,-14174,-32,102,-65,68,-134,-133,-35,-1
,1177,2018/03/15 01:36:40.53,-2115,7828,-14176,-59,80,-47,94,-139,-141,-10,-23
,1178,2018/03/15 01:36:40.55,-2115,7831,-14163,-51,84,-46,94,-135,-140,-16,-24
,1179,2018/03/15 01:36:40.57,-2133,7836,-14178,-101,36,-125,12,-137,-137,32,56
,1180,2018/03/15 01:36:40.59,-2121,7882,-14133,-120,16,-132,1,-136,-133,52,65
,1181,2018/03/15 01:36:40.61,-2153,7942,-14091,-88,52,-93,42,-140,-135,18,25
,1182,2018/03/15 01:36:40.63,-2126,8024,-14209,-65,72,-46,93,-137,-139,-3,-23
,1183,2018/03/15 01:36:40.65,-2185,8002,-14152,-53,79,-19,112,-132,-131,-13,-46
,1184,2018/03/15 01:36:40.67,-2162,8016,-14217,-32,93,-23,104,-125,-127,-30,-40
,1185,2018/03/15 01:36:40.69,-2153,7987,-14149,-13,119,-37,90,-132,-127,-53,-26
,1186,2018/03/15 01:36:40.71,-2170,7975,-14186,-5,124,-24,99,-129,-123,-59,-37
,1187,2018/03/15 01:36:40.73,-2187,7885,-14133,-25,96,-12,116,-121,-128,-35,-52
,1188,2018/03/15 01:36:40.75,-2242,7919,-14093,-27,99,1,136,-126,-135,-36,-68
,1189,2018/03/15 01:36:40.77,-2187,7979,-14077,-20,116,-21,112,-136,-133,-48,-45
,1190,2018/03/15 01:36:40.79,-2212,7983,-14098,-5,128,-26,101,-133,-127,-61,-37
,1191,2018/03/15 01:36:40.81,-2165,7999,-14172,-5,128,-23,110,-133,-133,-61,-43
,1192,2018/03/15 01:36:40.83,-2136,8013,-14204,-28,108,-15,131,-136,-146,-40,-58
,1193,2018/03/15 01:36:40.85,-2154,8034,-14157,-40,100,-14,124,-140,-138,-30,-55
,1194,2018/03/15 01:36:40.87,-2147,8011,-14108,-23,106,-21,105,-129,-126,-41,-42
,1195,2018/03/15 01:36:40.89,-2208,7979,-14156,0,136,-27,109,-136,-136,-68,-41
,1196,2018/03/15 01:36:40.91,-2160,7948,-14116,-13,126,-25,108,-139,-133,-56,-41
,1197,2018/03/15 01:36:40.93,-2126,7984,-14091,-30,100,-10,126,-130,-136,-35,-58
,1198,2018/03/15 01:36:40.95,-2185,7979,-14114,-38,96,-15,123,-134,-138,-29,-54
,1199,2018/03/15 01:36:40.97,-2176,7918,-14149,-32,109,-47,89,-141,-136,-38,-21
,1200,2018/03/15 01:36:40.99,-2160,7880,-14104,-41,99,-57,77,-140,-134,-29,-10
,1201,2018/03/15 01:36:41.01,-2128,8029,-14118,-43,98,-39,103,-141,-142,-27,-32
,1202,2018/03/15 01:36:41.03,-2139,7980,-14108,-50,86,-26,114,-136,-140,-18,-44
,1203,2018/03/15 01:36:41.05,-2017,7965,-14138,-55,78,-39,96,-133,-135,-11,-28
,1204,2018/03/15 01:36:41.07,-2150,8042,-14136,-40,97,-54,80,-137,-134,-28,-13
,1205,2018/03/15 01:36:41.09,-2094,8013,-14116,-35,103,-53,80,-138,-133,-34,-13
,1206,2018/03/15 01:36:41.11,-2123,8016,-14157,-34,99,-39,100,-133,-139,-32,-30
,1207,2018/03/15 01:36:41.13,-2126,8103,-14123,-60,76,-31,109,-136,-140,-8,-39
,1208,2018/03/15 01:36:41.15,-2204,8077,-14134,-38,88,-22,98,-126,-120,-25,-38
,1209,2018/03/15 01:36:41.17,-2227,8021,-14057,-26,96,-53,69,-122,-122,-35,-8
,1210,2018/03/15 01:36:41.19,-2203,8062,-14043,-35,92,-56,66,-127,-122,-28,-5
,1211,2018/03/15 01:36:41.21,-2210,8105,-14009,-44,82,-34,97,-126,-131,-19,-31
,1212,2018/03/15 01:36:41.23,-2173,8060,-14031,-52,75,-29,103,-127,-132,-11,-37
,1213,2018/03/15 01:36:41.25,-2136,8067,-14036,-56,73,-54,78,-129,-132,-8,-12
,1214,2018/03/15 01:36:41.27,-2131,8036,-13967,-43,92,-64,67,-135,-131,-24,-1
,1215,2018/03/15 01:36:41.29,-2232,8019,-14001,-38,98,-55,75,-136,-130,-30,-10
,1216,2018/03/15 01:36:41.31,-2140,7993,-14122,-53,72,-40,92,-125,-132,-9,-26
,1217,2018/03/15 01:36:41.33,-2206,8071,-14020,-57,73,-31,105,-130,-136,-8,-37
,1218,2018/03/15 01:36:41.35,-2290,8024,-13983,-48,86,-48,83,-134,-131,-19,-17
,1219,2018/03/15 01:36:41.37,-2279,8150,-14035,-28,100,-63,57,-128,-120,-36,3
,1220,2018/03/15 01:36:41.39,-2331,8157,-14098,-40,80,-61,59,-120,-120,-20,1
,1221,2018/03/15 01:36:41.41,-2327,8131,-14075,-49,76,-32,102,-125,-134,-13,-35
,1222,2018/03/15 01:36:41.43,-2264,8110,-13947,-52,80,-36,100,-132,-136,-14,-32
,1223,2018/03/15 01:36:41.45,-2342,8266,-13934,-47,84,-48,76,-131,-124,-18,-14
,1224,2018/03/15 01:36:41.47,-2331,8289,-13991,-24,106,-48,75,-130,-123,-41,-13
,1225,2018/03/15 01:36:41.49,-2306,8273,-14043,-31,97,-42,87,-128,-129,-33,-22
,1226,2018/03/15 01:36:41.51,-2350,8351,-14063,-48,78,-20,111,-126,-131,-15,-45
,1227,2018/03/15 01:36:41.53,-2288,8261,-13973,-40,87,-21,113,-127,-134,-23,-46
,1228,2018/03/15 01:36:41.55,-2255,8259,-13993,-23,113,-26,110,-136,-136,-45,-42
,1229,2018/03/15 01:36:41.57,-2263,8146,-14056,-1,142,-27,110,-143,-137,-70,-41
,1230,2018/03/15 01:36:41.59,-2361,8138,-13973,-17,116,-21,108,-133,-129,-49,-43
,1231,2018/03/15 01:36:41.61,-2286,8188,-13906,-29,96,-10,123,-125,-133,-33,-56
,1232,2018/03/15 01:36:41.63,-2363,8044,-13840,-39,92,-24,110,-131,-134,-26,-43
,1233,2018/03/15 01:36:41.65,-2257,8130,-13945,-23,115,-38,98,-138,-136,-46,-30
,1234,2018/03/15 01:36:41.67,-2287,8133,-13869,-13,132,-30,111,-145,-141,-59,-40
,1235,2018/03/15 01:36:41.69,-2285,8140,-13924,-15,128,-17,128,-143,-145,-56,-55
,1236,2018/03/15 01:36:41.71,-2342,8187,-13955,-40,104,-19,131,-144,-150,-32,-56
,1237,2018/03/15 01:36:41.73,-2254,8253,-13899,-41,105,-27,120,-146,-147,-32,-46
,1238,2018/03/15 01:36:41.75,-2227,8284,-14020,-20,128,-37,104,-148,-141,-54,-33
,1239,2018/03/15 01:36:41.77,-2216,8239,-13945,-12,134,-27,113,-146,-140,-61,-43
,1240,2018/03/15 01:36:41.79,-2312,8325,-13981,-35,107,-35,109,-142,-144,-36,-37
,1241,2018/03/15 01:36:41.81,-2363,8294,-14112,-68,67,-29,111,-135,-140,0,-41
,1242,2018/03/15 01:36:41.83,-2310,8294,-13927,-48,92,-45,97,-140,-142,-22,-26
,1243,2018/03/15 01:36:41.85,-2384,8286,-13897,-28,115,-46,91,-143,-137,-43,-22
,1244,2018/03/15 01:36:41.87,-2416,8263,-13967,-24,119,-43,105,-143,-148,-47,-31
,1245,2018/03/15 01:36:41.89,-2272,8238,-13951,-42,105,-30,120,-147,-150,-31,-45
,1246,2018/03/15 01:36:41.91,-2370,8207,-13915,-51,91,-26,115,-142,-141,-20,-44
,1247,2018/03/15 01:36:41.93,-2254,8232,-13951,-41,90,-42,86,-131,-128,-24,-22
,1248,2018/03/15 01:36:41.95,-2239,8244,-13943,-24,112,-46,92,-136,-138,-44,-23
,1249,2018/03/15 01:36:41.97,-2261,8214,-13916,-22,125,-34,110,-147,-144,-51,-38
,1250,2018/03/15 01:36:41.99,-2321,8238,-13984,-34,103,-19,120,-137,-139,-34,-50
,1251,2018/03/15 01:36:42.01,-2279,8170,-13912,-48,85,-30,106,-133,-136,-18,-38
,1252,2018/03/15 01:36:42.03,-2325,8144,-13767,-40,98,-50,94,-138,-144,-29,-22
,1253,2018/03/15 01:36:42.05,-2392,8201,-13955,-36,121,-57,101,-157,-158,-42,-22
,1254,2018/03/15 01:36:42.07,-2322,8250,-14041,-32,130,-39,117,-162,-156,-49,-39
,1255,2018/03/15 01:36:42.09,-2340,8201,-13992,-46,100,-29,121,-146,-150,-27,-46
,1256,2018/03/15 01:36:42.11,-2345,8264,-13855,-52,93,-28,120,-145,-148,-20,-46
,1257,2018/03/15 01:36:42.13,-2290,8315,-13749,-29,117,-34,107,-146,-141,-44,-36
,1258,2018/03/15 01:36:42.15,-2259,8363,-13915,-14,129,-42,98,-143,-140,-57,-28
,1259,2018/03/15 01:36:42.17,-2282,8298,-14010,-32,112,-38,107,-144,-145,-40,-34
,1260,2018/03/15 01:36:42.19,-2235,8390,-13995,-40,101,-20,120,-141,-140,-30,-50
,1261,2018/03/15 01:36:42.21,-2338,8328,-13975,-38,96,-36,96,-134,-132,-29,-30
,1262,2018/03/15 01:36:42.23,-2296,8320,-13912,-38,101,-63,77,-139,-140,-31,-7
,1263,2018/03/15 01:36:42.25,-2315,8337,-13936,-44,108,-57,84,-152,-141,-32,-13
,1264,2018/03/15 01:36:42.27,-2376,8296,-13900,-45,94,-44,94,-139,-138,-24,-25
,1265,2018/03/15 01:36:42.29,-2378,8261,-13890,-57,79,-26,113,-136,-139,-11,-43
,1266,2018/03/15 01:36:42.31,-2317,8224,-13908,-41,89,-33,92,-130,-125,-24,-29
,1267,2018/03/15 01:36:42.33,-2305,8215,-13963,-30,95,-54,69,-125,-123,-32,-7
,1268,2018/03/15 01:36:42.35,-2290,8192,-13913,-33,98,-56,75,-131,-131,-32,-9
,1269,2018/03/15 01:36:42.37,-2324,8174,-13927,-48,84,-42,92,-132,-134,-18,-25
,1270,2018/03/15 01:36:42.39,-2330,8227,-13883,-59,68,-32,99,-127,-131,-4,-33
,1271,2018/03/15 01:36:42.41,-2300,8187,-13961,-45,83,-40,90,-128,-130,-19,-25
,1272,2018/03/15 01:36:42.43,-2324,8166,-13983,-33,99,-59,66,-132,-125,-33,-3
,1273,2018/03/15 01:36:42.45,-2305,8210,-13955,-38,92,-52,73,-130,-125,-27,-10
,1274,2018/03/15 01:36:42.47,-2283,8206,-13951,-49,75,-35,94,-124,-129,-13,-29
,1275,2018/03/15 01:36:42.49,-2324,8184,-13975,-53,73,-29,103,-126,-132,-10,-37
,1276,2018/03/15 01:36:42.51,-2280,8229,-13915,-46,86,-53,80,-132,-133,-20,-13
,1277,2018/03/15 01:36:42.53,-2304,8276,-13931,-38,97,-53,77,-135,-130,-29,-12
,1278,2018/03/15 01:36:42.55,-2239,8279,-13943,-26,110,-36,96,-136,-132,-42,-30
,1279,2018/03/15 01:36:42.57,-2294,8268,-13927,-43,90,-26,110,-133,-136,-23,-42
,1280,2018/03/15 01:36:42.59,-2372,8292,-13971,-50,79,-24,111,-129,-135,-14,-43
,1281,2018/03/15 01:36:42.61,-2222,8237,-13896,-49,88,-59,76,-137,-135,-19,-8
,1282,2018/03/15 01:36:42.63,-2231,8245,-13919,-49,85,-60,72,-134,-132,-18,-6
,1283,2018/03/15 01:36:42.65,-2236,8248,-13945,-35,100,-44,91,-135,-135,-32,-23
,1284,2018/03/15 01:36:42.67,-2272,8249,-13963,-48,82,-27,110,-130,-137,-17,-41
,1285,2018/03/15 01:36:42.69,-2334,8254,-13953,-48,88,-30,117,-136,-147,-20,-43
,1286,2018/03/15 01:36:42.71,-2242,8262,-13929,-33,112,-48,91,-145,-139,-39,-21
,1287,2018/03/15 01:36:42.73,-2279,8319,-14003,-38,106,-68,74,-144,-142,-34,-3
,1288,2018/03/15 01:36:42.75,-2357,8217,-13920,-50,93,-52,88,-143,-140,-21,-18
,1289,2018/03/15 01:36:42.77,-2306,8135,-13901,-68,65,-47,88,-133,-135,1,-20
,1290,2018/03/15 01:36:42.79,-2409,8334,-13775,-66,60,-46,80,-126,-126,3,-17
,1291,2018/03/15 01:36:42.81,-2288,8318,-13846,-36,87,-38,73,-123,-111,-25,-17
,1292,2018/03/15 01:36:42.83,-2263,8304,-13981,-11,103,-34,80,-114,-114,-46,-23
,1293,2018/03/15 01:36:42.85,-2279,8358,-14013,-28,91,-31,92,-119,-123,-31,-30
,1294,2018/03/15 01:36:42.87,-2315,8403,-13921,-50,68,-25,99,-118,-124,-9,-37
,1295,2018/03/15 01:36:42.89,-2259,8398,-13927,-40,83,-27,100,-123,-127,-21,-36
,1296,2018/03/15 01:36:42.91,-2300,8332,-13976,-28,103,-51,73,-131,-124,-37,-11
,1297,2018/03/15 01:36:42.93,-2332,8318,-13953,-30,98,-46,75,-128,-121,-34,-14
,1298,2018/03/15 01:36:42.95,-2361,8260,-13930,-43,77,-40,88,-120,-128,-17,-24
,1299,2018/03/15 01:36:42.97,-2343,8244,-13856,-56,71,-32,102,-127,-134,-7,-35
,1300,2018/03/15 01:36:42.99,-2363,8187,-13916,-49,81,-49,81,-130,-130,-16,-16
,1301,2018/03/15 01:36:43.01,-2393,8320,-13883,-36,98,-61,65,-134,-126,-31,-2
,1302,2018/03/15 01:36:43.03,-2363,8273,-13846,-30,96,-48,70,-126,-118,-33,-11
,1303,2018/03/15 01:36:43.05,-2324,8366,-13973,-41,82,-34,93,-123,-127,-20,-29
,1304,2018/03/15 01:36:43.07,-2265,8255,-13958,-54,71,-32,98,-125,-130,-8,-33
,1305,2018/03/15 01:36:43.09,-2311,8299,-13959,-40,87,-40,86,-127,-126,-23,-23
,1306,2018/03/15 01:36:43.11,-2355,8312,-13929,-27,107,-51,80,-134,-131,-40,-14
,1307,2018/03/15 01:36:43.13,-2266,8249,-13974,-27,111,-36,97,-138,-133,-42,-30
,1308,2018/03/15 01:36:43.15,-2343,8334,-13975,-36,92,-20,109,-128,-129,-28,-44
,1309,2018/03/15 01:36:43.17,-2326,8320,-13933,-43,82,-24,107,-125,-131,-19,-41
,1310,2018/03/15 01:36:43.19,-2383,8322,-13928,-36,96,-37,94,-132,-131,-30,-28
,1311,2018/03/15 01:36:43.21,-2372,8301,-13892,-17,119,-42,88,-136,-130,-51,-23
,1312,2018/03/15 01:36:43.23,-2273,8278,-13926,-26,107,-35,101,-133,-136,-40,-33
,1313,2018/03/15 01:36:43.25,-2241,8297,-13929,-43,93,-29,112,-136,-141,-25,-41
,1314,2018/03/15 01:36:43.27,-2366,8266,-13869,-56,77,-37,98,-133,-135,-10,-30
,1315,2018/03/15 01:36:43.29,-2353,8206,-13811,-37,101,-41,97,-138,-138,-32,-28
,1316,2018/03/15 01:36:43.31,-2336,8261,-13899,-20,120,-45,90,-140,-135,-50,-22
,1317,2018/03/15 01:36:43.33,-2355,8329,-13912,-35,105,-41,104,-140,-145,-35,-31
,1318,2018/03/15 01:36:43.35,-2343,8260,-13888,-52,94,-26,126,-146,-152,-21,-50
,1319,2018/03/15 01:36:43.37,-2324,8270,-13873,-43,102,-31,114,-145,-145,-29,-41
,1320,2018/03/15 01:36:43.39,-2345,8311,-14044,-28,115,-40,100,-143,-140,-43,-30
,1321,2018/03/15 01:36:43.41,-2279,8295,-13941,-22,123,-32,105,-145,-137,-50,-36
,1322,2018/03/15 01:36:43.43,-2381,8290,-13807,-20,118,-10,130,-138,-140,-49,-60
,1323,2018/03/15 01:36:43.45,-2464,8429,-13797,-31,98,-13,127,-129,-140,-33,-57
,1324,2018/03/15 01:36:43.47,-2335,8409,-13856,-41,92,-48,88,-133,-136,-25,-20
,1325,2018/03/15 01:36:43.49,-2258,8377,-13991,-38,104,-54,81,-142,-135,-33,-13
,1326,2018/03/15 01:36:43.51,-2291,8383,-13986,-34,102,-52,77,-136,-129,-34,-12
,1327,2018/03/15 01:36:43.53,-2337,8376,-13939,-45,83,-40,92,-128,-132,-19,-26
,1328,2018/03/15 01:36:43.55,-2361,8349,-13898,-60,68,-40,91,-128,-131,-4,-25
,1329,2018/03/15 01:36:43.57,-2363,8307,-13903,-59,67,-57,63,-126,-120,-4,-3
,1330,2018/03/15 01:36:43.59,-2331,8267,-13882,-45,71,-60,52,-116,-112,-13,4
,1331,2018/03/15 01:36:43.61,-2340,8259,-13849,-29,89,-40,81,-118,-121,-30,-20
,1332,2018/03/15 01:36:43.63,-2412,8218,-13850,-37,90,-26,106,-127,-132,-26,-40
,1333,2018/03/15 01:36:43.65,-2397,8257,-13909,-53,77,-37,99,-130,-136,-12,-31
,1334,2018/03/15 01:36:43.67,-2411,8230,-13836,-48,82,-41,88,-130,-129,-17,-23
,1335,2018/03/15 01:36:43.69,-2382,8256,-13885,-21,107,-49,75,-128,-124,-43,-13
,1336,2018/03/15 01:36:43.71,-2414,8256,-13866,-39,96,-47,94,-135,-141,-28,-23
,1337,2018/03/15 01:36:43.73,-2290,8222,-13949,-17,130,49,200,-147,-151,-56,-124
,1338,2018/03/15 01:36:43.75,-2349,8270,-13828,25,161,-33,96,-136,-129,-93,-31
,1339,2018/03/15 01:36:43.77,-2377,8345,-13941,-128,-9,-114,-2,-119,-112,68,58
,1340,2018/03/15 01:36:43.79,-2307,8394,-13895,-12,101,-25,79,-113,-104,-44,-27
,1341,2018/03/15 01:36:43.81,-2284,8435,-13946,-37,70,-104,4,-107,-108,-16,50
,1342,2018/03/15 01:36:43.83,-2350,8386,-13999,-135,-27,-128,-14,-108,-114,81,71
,1343,2018/03/15 01:36:43.85,-2439,8429,-13887,-187,-74,-211,-93,-113,-118,130,152
,1344,2018/03/15 01:36:43.87,-2366,8385,-13863,-200,-80,-179,-61,-120,-118,140,120
,1345,2018/03/15 01:36:43.89,-2410,8333,-13850,-120,7,-110,12,-127,-122,56,49
,1346,2018/03/15 01:36:43.91,-2394,8334,-13858,-62,63,-28,97,-125,-125,0,-34
,1347,2018/03/15 01:36:43.93,-2335,8368,-13921,-13,106,32,156,-119,-124,-46,-94
,1348,2018/03/15 01:36:43.95,-2330,8313,-13838,0,123,6,137,-123,-131,-61,-71
,1349,2018/03/15 01:36:43.97,-2393,8235,-13824,2,135,-16,111,-133,-127,-68,-47
,1350,2018/03/15 01:36:43.99,-2392,8260,-13829,21,151,-6,118,-130,-124,-86,-56
,1351,2018/03/15 01:36:44.01,-2287,8261,-13904,-4,125,-4,130,-129,-134,-60,-63
,1352,2018/03/15 01:36:44.03,-2386,8296,-13869,-22,110,11,151,-132,-140,-44,-81
,1353,2018/03/15 01:36:44.05,-2373,8339,-13900,-15,119,-4,129,-134,-133,-52,-62
,1354,2018/03/15 01:36:44.07,-2411,8370,-13823,-1,132,-40,91,-133,-131,-65,-25
,1355,2018/03/15 01:36:44.09,-2305,8344,-13920,-24,116,-56,84,-140,-140,-46,-14
,1356,2018/03/15 01:36:44.11,-2354,8242,-13917,-50,88,-42,97,-138,-139,-19,-27
,1357,2018/03/15 01:36:44.13,-2399,8340,-13731,-67,66,-35,106,-133,-141,0,-35
,1358,2018/03/15 01:36:44.15,-2378,8408,-13789,-53,89,-43,100,-142,-143,-18,-28
,1359,2018/03/15 01:36:44.17,-2397,8404,-13893,-24,120,-46,89,-144,-135,-48,-21
,1360,2018/03/15 01:36:44.19,-2326,8455,-13941,-8,130,-22,115,-138,-137,-61,-46
,1361,2018/03/15 01:36:44.21,-2340,8498,-13910,-16,122,2,146,-138,-144,-53,-74
,1362,2018/03/15 01:36:44.23,-2415,8451,-13893,-26,113,6,150,-139,-144,-43,-78
,1363,2018/03/15 01:36:44.25,-2387,8423,-13796,-24,117,-30,104,-141,-134,-46,-37
,1364,2018/03/15 01:36:44.27,-2356,8356,-13875,-16,113,-37,95,-129,-132,-48,-29
,1365,2018/03/15 01:36:44.29,-2348,8320,-13823,-12,129,-32,108,-141,-140,-58,-38
,1366,2018/03/15 01:36:44.31,-2316,8324,-13856,-31,106,-8,131,-137,-139,-37,-61
,1367,2018/03/15 01:36:44.33,-2332,8290,-13911,-35,96,-14,121,-131,-135,-30,-53
,1368,2018/03/15 01:36:44.35,-2410,8342,-13769,-25,108,-32,99,-133,-131,-41,-33
,1369,2018/03/15 01:36:44.37,-2340,8303,-13793,-9,123,-37,89,-132,-126,-57,-26
,1370,2018/03/15 01:36:44.39,-2349,8371,-13815,-11,121,-21,111,-132,-132,-55,-45
,1371,2018/03/15 01:36:44.41,-2359,8372,-13838,-32,94,-7,124,-126,-131,-31,-58
,1372,2018/03/15 01:36:44.43,-2393,8365,-13819,-36,92,-17,115,-128,-132,-28,-49
,1373,2018/03/15 01:36:44.45,-2322,8423,-13889,-21,113,-40,95,-134,-135,-46,-27
,1374,2018/03/15 01:36:44.47,-2361,8385,-13908,-19,124,-40,98,-143,-138,-52,-29
,1375,2018/03/15 01:36:44.49,-2406,8384,-13861,-12,127,-15,124,-139,-139,-57,-54
,1376,2018/03/15 01:36:44.51,-2346,8433,-13847,-37,97,-8,129,-134,-137,-30,-60
,1377,2018/03/15 01:36:44.53,-2465,8397,-13773,-25,107,-7,129,-132,-136,-41,-61
,1378,2018/03/15 01:36:44.55,-2422,8441,-13811,-9,128,-31,105,-137,-136,-59,-37
,1379,2018/03/15 01:36:44.57,-2425,8472,-13833,-7,137,-31,109,-144,-140,-65,-39
,1380,2018/03/15 01:36:44.59,-2445,8388,-13815,-16,122,-12,126,-138,-138,-53,-57
,1381,2018/03/15 01:36:44.61,-2394,8371,-13850,-39,97,-18,126,-136,-144,-29,-54
,1382,2018/03/15 01:36:44.63,-2409,8438,-13747,-38,100,-28,111,-138,-139,-31,-41
,1383,2018/03/15 01:36:44.65,-2438,8374,-13846,-10,131,-36,101,-141,-137,-60,-32
,1384,2018/03/15 01:36:44.67,-2353,8392,-13768,-14,126,-41,88,-140,-129,-56,-23
,1385,2018/03/15 01:36:44.69,-2483,8401,-13887,-34,101,-28,110,-135,-138,-33,-41
,1386,2018/03/15 01:36:44.71,-2458,8430,-13845,-52,82,-28,110,-134,-138,-15,-41
,1387,2018/03/15 01:36:44.73,-2436,8511,-13824,-46,88,-40,93,-134,-133,-21,-26
,1388,2018/03/15 01:36:44.75,-2389,8469,-13815,-24,113,-46,88,-137,-134,-44,-21
,1389,2018/03/15 01:36:44.77,-2442,8467,-13819,-24,122,-44,105,-146,-149,-49,-30
,1390,2018/03/15 01:36:44.79,-2423,8387,-13839,-38,109,-28,121,-147,-149,-35,-46
,1391,2018/03/15 01:36:44.81,-2403,8403,-13719,-58,86,-31,115,-144,-146,-14,-42
,1392,2018/03/15 01:36:44.83,-2372,8380,-13738,-48,97,-60,84,-145,-144,-24,-12
,1393,2018/03/15 01:36:44.85,-2459,8508,-13782,-69,78,-123,17,-147,-140,-4,53
,1394,2018/03/15 01:36:44.87,-2412,8538,-13912,-123,17,-137,1,-140,-138,53,68
,1395,2018/03/15 01:36:44.89,-2443,8516,-13870,-134,1,-110,28,-135,-138,66,41
,1396,2018/03/15 01:36:44.91,-2401,8508,-13727,-129,5,-106,31,-134,-137,62,37
,1397,2018/03/15 01:36:44.93,-2362,8478,-13752,-120,18,-126,11,-138,-137,51,57
,1398,2018/03/15 01:36:44.95,-2338,8485,-13778,-98,40,-110,16,-138,-126,29,47
,1399,2018/03/15 01:36:44.97,-2418,8474,-13800,-82,48,-84,51,-130,-135,17,16
,1400,2018/03/15 01:36:44.99,-2361,8412,-13781,-95,43,-71,71,-138,-142,26,0
,1401,2018/03/15 01:36:45.01,-2441,8396,-13769,-92,43,-72,65,-135,-137,24,3
,1402,2018/03/15 01:36:45.03,-2272,8318,-13821,-75,63,-88,49,-138,-137,6,19
,1403,2018/03/15 01:36:45.05,-2355,8390,-13795,-67,74,-85,50,-141,-135,-3,17
,1404,2018/03/15 01:36:45.07,-2325,8350,-13754,-70,62,-56,74,-132,-130,4,-9
,1405,2018/03/15 01:36:45.09,-2333,8335,-13778,-53,65,-15,116,-118,-131,-6,-50
,1406,2018/03/15 01:36:45.11,-2295,8409,-13797,-27,102,-6,126,-129,-132,-37,-60
,1407,2018/03/15 01:36:45.13,-2355,8430,-13884,12,147,2,132,-135,-130,-79,-67
,1408,2018/03/15 01:36:45.15,-2303,8482,-13911,35,167,15,138,-132,-123,-101,-76
,1409,2018/03/15 01:36:45.17,-2371,8516,-13903,26,149,25,150,-123,-125,-87,-87
,1410,2018/03/15 01:36:45.19,-2328,8482,-13870,7,127,36,159,-120,-123,-67,-97
,1411,2018/03/15 01:36:45.21,-2398,8466,-13803,16,137,27,152,-121,-125,-76,-89
,1412,2018/03/15 01:36:45.23,-2390,8438,-13861,41,170,32,153,-129,-121,-105,-92
,1413,2018/03/15 01:36:45.25,-2352,8402,-13802,56,183,27,154,-127,-127,-119,-90
,1414,2018/03/15 01:36:45.27,-2397,8372,-13863,25,156,32,163,-131,-131,-90,-97
,1415,2018/03/15 01:36:45.29,-2362,8347,-13807,11,134,32,163,-123,-131,-72,-97
,1416,2018/03/15 01:36:45.31,-2294,8355,-13867,6,138,4,137,-132,-133,-72,-70
,1417,2018/03/15 01:36:45.33,-2370,8270,-13857,8,148,-20,118,-140,-138,-78,-49
,1418,2018/03/15 01:36:45.35,-2322,8324,-13747,6,150,-5,134,-144,-139,-78,-64
,1419,2018/03/15 01:36:45.37,-2338,8317,-13791,-10,128,-3,139,-138,-142,-59,-68
,1420,2018/03/15 01:36:45.39,-2367,8343,-13850,-29,102,-6,126,-131,-132,-36,-60
,1421,2018/03/15 01:36:45.41,-2364,8298,-13871,-25,110,-27,113,-135,-140,-42,-43
,1422,2018/03/15 01:36:45.43,-2337,8387,-13814,-5,139,-28,109,-144,-137,-67,-40
,1423,2018/03/15 01:36:45.45,-2445,8435,-13890,-5,133,-22,112,-138,-134,-64,-45
,1424,2018/03/15 01:36:45.47,-2420,8464,-13844,-28,105,-20,114,-133,-134,-38,-47
,1425,2018/03/15 01:36:45.49,-2343,8406,-13838,-40,88,-16,114,-128,-130,-24,-49
,1426,2018/03/15 01:36:45.51,-2447,8373,-13824,-33,106,-43,93,-139,-136,-36,-25
,1427,2018/03/15 01:36:45.53,-2404,8462,-13701,-27,108,-43,87,-135,-130,-40,-22
,1428,2018/03/15 01:36:45.55,-2500,8476,-13707,-21,113,-23,107,-134,-130,-46,-42
,1429,2018/03/15 01:36:45.57,-2466,8507,-13863,-35,91,-18,112,-126,-130,-28,-47
,1430,2018/03/15 01:36:45.59,-2367,8587,-13900,-44,82,-26,100,-126,-126,-19,-37
,1431,2018/03/15 01:36:45.61,-2401,8596,-13832,-28,96,-37,86,-124,-123,-34,-24
,1432,2018/03/15 01:36:45.63,-2397,8605,-13831,-14,113,-42,81,-127,-123,-49,-19
,1433,2018/03/15 01:36:45.65,-2401,8469,-13867,-30,99,-36,99,-129,-135,-34,-31
,1434,2018/03/15 01:36:45.67,-2357,8448,-13839,-48,84,-23,114,-132,-137,-18,-45
,1435,2018/03/15 01:36:45.69,-2366,8433,-13819,-49,83,-39,96,-132,-135,-17,-28
,1436,2018/03/15 01:36:45.71,-2371,8364,-13784,-37,96,-51,76,-133,-127,-29,-12
,1437,2018/03/15 01:36:45.73,-2383,8334,-13817,-25,102,-44,76,-127,-120,-38,-16
,1438,2018/03/15 01:36:45.75,-2391,8389,-13786,-31,94,-21,106,-125,-127,-31,-42
,1439,2018/03/15 01:36:45.77,-2276,8393,-13788,-36,84,-19,107,-120,-126,-24,-44
,1440,2018/03/15 01:36:45.79,-2392,8381,-13775,-43,81,-33,93,-124,-126,-19,-30
,1441,2018/03/15 01:36:45.81,-2314,8419,-13843,-26,104,-48,79,-130,-127,-39,-15
,1442,2018/03/15 01:36:45.83,-2327,8322,-13938,-26,109,-39,92,-135,-131,-41,-26
,1443,2018/03/15 01:36:45.85,-2324,8344,-13887,-27,103,-17,115,-130,-132,-38,-49
,1444,2018/03/15 01:36:45.87,-2345,8339,-13853,-42,87,-18,119,-129,-137,-22,-50
,1445,2018/03/15 01:36:45.89,-2361,8394,-13870,-40,90,-33,95,-130,-128,-25,-31
,1446,2018/03/15 01:36:45.91,-2381,8390,-13894,-15,109,-44,83,-124,-127,-47,-19
,1447,2018/03/15 01:36:45.93,-2407,8419,-13894,-24,110,-47,84,-134,-131,-43,-18
,1448,2018/03/15 01:36:45.95,-2407,8438,-13883,-39,90,-26,104,-129,-130,-25,-39
,1449,2018/03/15 01:36:45.97,-2465,8398,-13827,-50,74,-30,99,-124,-129,-12,-34
,1450,2018/03/15 01:36:45.99,-2422,8381,-13821,-44,80,-41,79,-124,-120,-18,-19
,1451,2018/03/15 01:36:46.01,-2384,8314,-13807,-27,98,-51,72,-125,-123,-35,-10
,1452,2018/03/15 01:36:46.03,-2428,8360,-13878,-34,98,-46,87,-132,-133,-32,-20
,1453,2018/03/15 01:36:46.05,-2349,8329,-13812,-43,87,-25,111,-130,-136,-22,-43
,1454,2018/03/15 01:36:46.07,-2383,8347,-13757,-51,81,-27,105,-132,-132,-15,-39
,1455,2018/03/15 01:36:46.09,-2391,8367,-13865,-29,98,-35,92,-127,-127,-34,-28
,1456,2018/03/15 01:36:46.11,-2321,8359,-13887,-16,118,-40,92,-134,-132,-51,-26
,1457,2018/03/15 01:36:46.13,-2368,8333,-13820,-29,112,-35,105,-141,-140,-41,-35
,1458,2018/03/15 01:36:46.15,-2332,8386,-13869,-37,97,-10,124,-134,-134,-30,-57
,1459,2018/03/15 01:36:46.17,-2389,8389,-13819,-30,95,-15,115,-125,-130,-32,-50
,1460,2018/03/15 01:36:46.19,-2342,8383,-13908,-28,107,-46,88,-135,-134,-39,-21
,1461,2018/03/15 01:36:46.21,-2430,8282,-13889,-26,111,-48,82,-137,-130,-42,-17
,1462,2018/03/15 01:36:46.23,-2502,8284,-13737,-31,99,-33,96,-130,-129,-34,-31
,1463,2018/03/15 01:36:46.25,-2437,8437,-13703,-58,71,-47,88,-129,-135,-6,-20
,1464,2018/03/15 01:36:46.27,-2467,8481,-13776,-62,68,-38,95,-130,-133,-3,-28
,1465,2018/03/15 01:36:46.29,-2441,8465,-13906,-30,105,-72,57,-135,-129,-37,7
,1466,2018/03/15 01:36:46.31,-2368,8516,-13894,-86,45,-125,-3,-131,-122,20,64
,1467,2018/03/15 01:36:46.33,-2400,8514,-13857,-122,3,-109,22,-125,-131,59,43
,1468,2018/03/15 01:36:46.35,-2449,8472,-13892,-117,13,-85,51,-130,-136,52,17
,1469,2018/03/15 01:36:46.37,-2325,8417,-13874,-93,38,-68,59,-131,-127,27,4
,1470,2018/03/15 01:36:46.39,-2448,8363,-13810,-49,76,-50,74,-125,-124,-13,-12
,1471,2018/03/15 01:36:46.41,-2372,8375,-13811,-15,117,-30,100,-132,-130,-51,-35
,1472,2018/03/15 01:36:46.43,-2430,8273,-13858,-22,110,-10,127,-132,-137,-44,-58
,1473,2018/03/15 01:36:46.45,-2379,8303,-13814,-28,104,-8,128,-132,-136,-38,-60
,1474,2018/03/15 01:36:46.47,-2381,8325,-13767,-24,109,-20,113,-133,-133,-42,-46
,1475,2018/03/15 01:36:46.49,-2378,8302,-13826,-12,125,-34,100,-137,-134,-56,-33
,1476,2018/03/15 01:36:46.51,-2326,8350,-13908,-8,130,-17,118,-138,-135,-61,-50
,1477,2018/03/15 01:36:46.53,-2394,8367,-13865,-15,119,-3,130,-134,-133,-52,-63
,1478,2018/03/15 01:36:46.55,-2333,8340,-13904,-32,97,-16,120,-129,-136,-32,-52
,1479,2018/03/15 01:36:46.57,-2366,8343,-13916,-23,112,-18,114,-135,-132,-44,-48
,1480,2018/03/15 01:36:46.59,-2388,8348,-13931,-1,132,-22,106,-133,-128,-65,-42
,1481,2018/03/15 01:36:46.61,-2388,8393,-13896,0,133,-9,120,-133,-129,-66,-55
,1482,2018/03/15 01:36:46.63,-2396,8417,-13894,-21,109,-14,121,-130,-135,-44,-53
,1483,2018/03/15 01:36:46.65,-2375,8351,-13883,-39,87,-21,106,-126,-127,-24,-42
,1484,2018/03/15 01:36:46.67,-2421,8355,-13844,-31,96,-38,89,-127,-127,-32,-25
,1485,2018/03/15 01:36:46.69,-2433,8334,-13846,-18,113,-39,89,-131,-128,-47,-25
,1486,2018/03/15 01:36:46.71,-2461,8348,-13900,-20,103,-28,95,-123,-123,-41,-33
,1487,2018/03/15 01:36:46.73,-2406,8297,-13851,-29,86,-20,105,-115,-125,-28,-42
,1488,2018/03/15 01:36:46.75,-2340,8270,-13851,-48,77,-38,93,-125,-131,-14,-27
,1489,2018/03/15 01:36:46.77,-2453,8260,-13847,-35,101,-44,90,-136,-134,-33,-23
,1490,2018/03/15 01:36:46.79,-2416,8295,-13865,-22,120,-42,95,-142,-137,-49,-26
,1491,2018/03/15 01:36:46.81,-2450,8340,-13818,-28,109,-28,105,-137,-133,-40,-38
,1492,2018/03/15 01:36:46.83,-2362,8335,-13851,-43,86,-29,111,-129,-140,-21,-41
,1493,2018/03/15 01:36:46.85,-2356,8379,-13887,-50,90,-34,107,-140,-141,-20,-36
,1494,2018/03/15 01:36:46.87,-2371,8383,-13810,-29,108,-44,87,-137,-131,-39,-21
,1495,2018/03/15 01:36:46.89,-2414,8331,-13831,-28,108,-53,81,-136,-134,-40,-14
,1496,2018/03/15 01:36:46.91,-2418,8299,-13871,-40,93,-36,99,-133,-135,-26,-31
,1497,2018/03/15 01:36:46.93,-2433,8294,-13865,-54,78,-32,102,-132,-134,-12,-35
,1498,2018/03/15 01:36:46.95,-2416,8305,-13795,-50,79,-42,87,-129,-129,-14,-22
,1499,2018/03/15 01:36:46.97,-2467,8380,-13789,-37,96,-58,75,-133,-133,-29,-8
,1500,2018/03/15 01:36:46.99,-2375,8412,-13798,-41,97,-68,69,-138,-137,-28,0
,1501,2018/03/15 01:36:47.01,-2374,8441,-13980,-67,72,-55,82,-139,-137,-2,-13
,1502,2018/03/15 01:36:47.03,-2347,8442,-13924,-67,65,-44,93,-132,-137,1,-24
,1503,2018/03/15 01:36:47.05,-2327,8420,-13884,-83,54,-109,24,-137,-133,14,42
,1504,2018/03/15 01:36:47.07,-2300,8426,-13835,-121,11,-148,-23,-132,-125,55,85
,1505,2018/03/15 01:36:47.09,-2298,8395,-13912,-126,6,-134,-3,-132,-131,60,68
,1506,2018/03/15 01:36:47.11,-2350,8376,-13847,-122,7,-111,20,-129,-131,57,45
,1507,2018/03/15 01:36:47.13,-2348,8370,-13820,-127,2,-99,30,-129,-129,62,34
,1508,2018/03/15 01:36:47.15,-2390,8297,-13842,-106,22,-96,29,-128,-125,42,33
