// Data mode  : Full
// Transmission speed  : 50Hz
// Accelerometer sensor's range  : 2g
// Gyroscope sensor's range  : 250dps
//
//ARTIFACT,NUM,DATE,ACC_X,ACC_Y,ACC_Z,GYRO_X,GYRO_Y,GYRO_Z,EOG_L,EOG_R,EOG_H,EOG_V
,1,2018/03/15 00:37:28.43,-2608,11310,-11698,-219,-83,438,26,133,-107,-79
,2,2018/03/15 00:37:28.45,-2698,11339,-11713,-174,-160,289,-26,81,-107,-27
,3,2018/03/15 00:37:28.47,-2603,11370,-11565,-76,-196,144,-56,35,-91,10
,4,2018/03/15 00:37:28.49,-2651,11338,-11514,49,-155,-9,-100,-11,-89,55
,5,2018/03/15 00:37:28.51,-2606,11265,-11548,76,-120,-102,-90,6,-96,42
,6,2018/03/15 00:37:28.53,-2626,11157,-11578,75,-161,-121,-128,-32,-96,80
,7,2018/03/15 00:37:28.55,-2633,11102,-11532,-27,-213,-84,-121,-16,-105,68
,8,2018/03/15 00:37:28.57,-2626,11049,-11588,-102,-245,15,-66,51,-117,7
,9,2018/03/15 00:37:28.59,-2741,11110,-11592,-85,-250,88,-42,88,-130,-23
,10,2018/03/15 00:37:28.61,-2673,11153,-11508,-38,-214,153,-14,128,-142,-57
,11,2018/03/15 00:37:28.63,-2693,11179,-11553,-7,-160,173,-21,129,-150,-54
,12,2018/03/15 00:37:28.65,-2645,11235,-11587,-39,-127,131,-8,127,-135,-59
,13,2018/03/15 00:37:28.67,-2682,11085,-11454,-116,-32,153,4,148,-144,-76
,14,2018/03/15 00:37:28.69,-2736,10985,-11494,-98,-25,329,-10,141,-151,-65
,15,2018/03/15 00:37:28.71,-2676,10881,-11498,-89,49,659,-7,139,-146,-66
,16,2018/03/15 00:37:28.73,-2623,10817,-11546,-71,80,1073,-3,140,-143,-68
,17,2018/03/15 00:37:28.75,-2555,10931,-11540,-124,93,1477,-12,129,-141,-58
,18,2018/03/15 00:37:28.77,-2454,10938,-11582,-149,47,1794,-31,124,-155,-46
,19,2018/03/15 00:37:28.79,-2353,11075,-11493,-203,66,2059,-32,141,-173,-54
,20,2018/03/15 00:37:28.81,-2246,11255,-11592,-269,115,2211,-18,141,-159,-61
,21,2018/03/15 00:37:28.83,-2180,11335,-11613,-255,16,2277,-44,103,-147,-29
,22,2018/03/15 00:37:28.85,-2150,11383,-11569,-257,-41,2228,-33,112,-145,-39
,23,2018/03/15 00:37:28.87,-2116,11497,-11474,-201,-87,2162,-30,115,-145,-42
,24,2018/03/15 00:37:28.89,-2039,11547,-11538,-218,-147,1993,-35,107,-142,-36
,25,2018/03/15 00:37:28.91,-1986,11679,-11519,-194,-268,1780,-36,107,-143,-35
,26,2018/03/15 00:37:28.93,-1921,11765,-11499,-195,-350,1478,-29,111,-140,-41
,27,2018/03/15 00:37:28.95,-1869,11925,-11446,-147,-366,1156,-28,113,-141,-42
,28,2018/03/15 00:37:28.97,-1978,11863,-11441,-64,-391,745,-12,128,-140,-58
,29,2018/03/15 00:37:28.99,-1873,11947,-11453,16,-395,377,-19,122,-141,-51
,30,2018/03/15 00:37:29.01,-2005,11884,-11421,70,-356,7,-26,120,-146,-47
,31,2018/03/15 00:37:29.03,-2070,11684,-11259,110,-268,-248,-26,121,-147,-47
,32,2018/03/15 00:37:29.05,-2105,11452,-11260,118,-62,-381,-43,100,-143,-28
,33,2018/03/15 00:37:29.07,-2120,11394,-11296,118,88,-392,-27,120,-147,-46
,34,2018/03/15 00:37:29.09,-2049,11264,-11319,84,241,-328,-22,130,-152,-54
,35,2018/03/15 00:37:29.11,-2020,11346,-11400,66,262,-217,-38,120,-158,-41
,36,2018/03/15 00:37:29.13,-1972,11420,-11474,19,273,-141,-31,113,-144,-41
,37,2018/03/15 00:37:29.15,-1880,11507,-11459,-5,225,-105,-33,98,-131,-32
,38,2018/03/15 00:37:29.17,-1889,11471,-11476,-4,187,-116,-11,106,-117,-47
,39,2018/03/15 00:37:29.19,-1872,11563,-11505,33,101,-176,-5,96,-101,-45
,40,2018/03/15 00:37:29.21,-1904,11534,-11553,76,18,-190,-2,94,-96,-46
,41,2018/03/15 00:37:29.23,-1884,11432,-11561,103,-68,-141,-14,90,-104,-38
,42,2018/03/15 00:37:29.25,-1981,11389,-11455,130,-131,-86,-27,92,-119,-32
,43,2018/03/15 00:37:29.27,-1916,11334,-11551,137,-133,1,-5,124,-129,-59
,44,2018/03/15 00:37:29.29,-1940,11405,-11489,184,-158,74,-6,127,-133,-60
,45,2018/03/15 00:37:29.31,-1966,11458,-11462,150,-140,87,-20,112,-132,-46
,46,2018/03/15 00:37:29.33,-2010,11431,-11490,144,-118,49,-23,107,-130,-42
,47,2018/03/15 00:37:29.35,-1988,11470,-11457,112,-110,-68,-15,117,-132,-51
,48,2018/03/15 00:37:29.37,-2000,11480,-11456,105,-83,-184,-22,110,-132,-44
,49,2018/03/15 00:37:29.39,-2043,11422,-11443,88,-88,-247,-19,100,-119,-40
,50,2018/03/15 00:37:29.41,-2117,11531,-11537,8,-55,-300,-38,69,-107,-15
,51,2018/03/15 00:37:29.43,-2103,11505,-11452,11,-64,-428,-92,5,-97,43
,52,2018/03/15 00:37:29.45,-2115,11480,-11449,-28,9,-565,-98,-25,-73,61
,53,2018/03/15 00:37:29.47,-2087,11498,-11430,-2,70,-661,-48,20,-68,14
,54,2018/03/15 00:37:29.49,-2158,11454,-11493,83,116,-744,-22,67,-89,-22
,55,2018/03/15 00:37:29.51,-2120,11408,-11486,78,141,-736,14,108,-94,-61
,56,2018/03/15 00:37:29.53,-2090,11402,-11568,86,142,-734,20,127,-107,-73
,57,2018/03/15 00:37:29.55,-2136,11504,-11523,82,90,-750,32,153,-121,-92
,58,2018/03/15 00:37:29.57,-2140,11477,-11451,84,76,-817,22,145,-123,-83
,59,2018/03/15 00:37:29.59,-2140,11564,-11507,119,81,-948,7,136,-129,-71
,60,2018/03/15 00:37:29.61,-2208,11567,-11504,131,48,-1106,12,145,-133,-78
,61,2018/03/15 00:37:29.63,-2249,11502,-11468,142,30,-1321,45,173,-128,-109
,62,2018/03/15 00:37:29.65,-2308,11555,-11545,188,48,-1495,28,163,-135,-95
,63,2018/03/15 00:37:29.67,-2364,11488,-11494,196,42,-1688,25,155,-130,-90
,64,2018/03/15 00:37:29.69,-2474,11452,-11481,143,49,-1825,16,144,-128,-80
,65,2018/03/15 00:37:29.71,-2563,11374,-11588,106,76,-1924,9,125,-116,-67
,66,2018/03/15 00:37:29.73,-2539,11311,-11451,161,60,-1975,-4,114,-118,-55
,67,2018/03/15 00:37:29.75,-2654,11253,-11328,127,180,-2039,4,124,-120,-64
,68,2018/03/15 00:37:29.77,-2648,11164,-11387,78,314,-2045,38,153,-115,-95
,69,2018/03/15 00:37:29.79,-2703,11153,-11477,-38,388,-1998,4,117,-113,-60
,70,2018/03/15 00:37:29.81,-2737,11083,-11532,-46,365,-1877,-18,93,-111,-37
,71,2018/03/15 00:37:29.83,-2763,11021,-11518,-40,303,-1650,-3,114,-117,-55
,72,2018/03/15 00:37:29.85,-2793,10997,-11536,-19,296,-1355,-8,107,-115,-49
,73,2018/03/15 00:37:29.87,-2794,10977,-11515,1,278,-1058,-27,78,-105,-25
,74,2018/03/15 00:37:29.89,-2862,11015,-11559,34,248,-735,-29,76,-105,-23
,75,2018/03/15 00:37:29.91,-2930,10972,-11582,64,179,-424,-38,64,-102,-13
,76,2018/03/15 00:37:29.93,-2775,10991,-11634,111,93,-160,22,131,-109,-76
,77,2018/03/15 00:37:29.95,-2827,11064,-11593,163,45,83,84,192,-108,-138
,78,2018/03/15 00:37:29.97,-2755,11102,-11600,179,5,218,5,109,-104,-57
,79,2018/03/15 00:37:29.99,-2728,11180,-11615,157,8,257,-72,38,-110,17
,80,2018/03/15 00:37:30.01,-2710,11211,-11574,165,4,205,-133,-29,-104,81
,81,2018/03/15 00:37:30.03,-2761,11254,-11582,122,-20,55,-190,-86,-104,138
,82,2018/03/15 00:37:30.05,-2754,11262,-11566,63,-12,-87,-217,-112,-105,164
,83,2018/03/15 00:37:30.07,-2852,11231,-11521,2,-14,-188,-198,-87,-111,142
,84,2018/03/15 00:37:30.09,-2813,11135,-11495,-36,7,-228,-230,-129,-101,179
,85,2018/03/15 00:37:30.11,-2780,11101,-11524,-78,6,-203,-254,-151,-103,202
,86,2018/03/15 00:37:30.13,-2825,11114,-11535,-85,40,-101,-244,-142,-102,193
,87,2018/03/15 00:37:30.15,-2891,11129,-11524,-30,35,-5,-202,-99,-103,150
,88,2018/03/15 00:37:30.17,-2791,11236,-11542,21,81,73,-109,-8,-101,58
,89,2018/03/15 00:37:30.19,-2819,11260,-11558,50,91,78,-103,-5,-98,54
,90,2018/03/15 00:37:30.21,-2805,11325,-11548,76,98,25,-131,-29,-102,80
,91,2018/03/15 00:37:30.23,-2711,11310,-11526,110,80,-51,-152,-46,-106,99
,92,2018/03/15 00:37:30.25,-2743,11228,-11579,119,49,-113,-153,-47,-106,100
,93,2018/03/15 00:37:30.27,-2826,11178,-11593,158,38,-96,-175,-78,-97,126
,94,2018/03/15 00:37:30.29,-2750,11143,-11630,163,34,-82,-165,-72,-93,118
,95,2018/03/15 00:37:30.31,-2758,11102,-11528,163,9,-53,-159,-63,-96,111
,96,2018/03/15 00:37:30.33,-2749,11126,-11618,162,14,-21,-164,-58,-106,111
,97,2018/03/15 00:37:30.35,-2792,11117,-11601,156,-27,23,-184,-76,-108,130
,98,2018/03/15 00:37:30.37,-2802,11203,-11581,168,-59,43,-206,-97,-109,151
,99,2018/03/15 00:37:30.39,-2847,11100,-11600,197,-47,63,-204,-96,-108,150
,100,2018/03/15 00:37:30.41,-2812,11078,-11522,240,21,86,-183,-76,-107,129
,101,2018/03/15 00:37:30.43,-2839,11134,-11534,229,98,122,-161,-51,-110,106
,102,2018/03/15 00:37:30.45,-2778,11194,-11583,176,139,86,-198,-85,-113,141
,103,2018/03/15 00:37:30.47,-2817,11177,-11647,107,74,22,-204,-98,-106,151
,104,2018/03/15 00:37:30.49,-2738,11183,-11583,94,24,-53,-181,-77,-104,129
,105,2018/03/15 00:37:30.51,-2800,11163,-11585,119,30,-69,-167,-57,-110,112
,106,2018/03/15 00:37:30.53,-2818,11106,-11606,151,58,-84,-160,-54,-106,107
,107,2018/03/15 00:37:30.55,-2747,11092,-11617,206,35,-32,-137,-34,-103,85
,108,2018/03/15 00:37:30.57,-2736,11099,-11640,160,25,16,-105,-4,-101,54
,109,2018/03/15 00:37:30.59,-2818,11067,-11689,152,-20,44,-68,39,-107,14
,110,2018/03/15 00:37:30.61,-2739,11076,-11652,137,6,63,-20,76,-96,-28
,111,2018/03/15 00:37:30.63,-2765,11089,-11637,140,-4,43,2,100,-98,-51
,112,2018/03/15 00:37:30.65,-2810,11114,-11627,144,32,29,8,107,-99,-57
,113,2018/03/15 00:37:30.67,-2798,11110,-11663,145,72,-2,17,103,-86,-60
,114,2018/03/15 00:37:30.69,-2769,11097,-11639,140,69,-9,9,90,-81,-49
,115,2018/03/15 00:37:30.71,-2732,11117,-11648,114,62,-4,4,97,-93,-50
,116,2018/03/15 00:37:30.73,-2763,11163,-11613,75,63,-7,-3,83,-86,-40
,117,2018/03/15 00:37:30.75,-2744,11144,-11675,65,64,-37,0,89,-89,-44
,118,2018/03/15 00:37:30.77,-2722,11158,-11672,92,53,-48,-14,72,-86,-29
,119,2018/03/15 00:37:30.79,-2788,11115,-11657,148,46,-62,-25,66,-91,-20
,120,2018/03/15 00:37:30.81,-2711,11068,-11675,177,53,-46,-25,64,-89,-19
,121,2018/03/15 00:37:30.83,-2649,11087,-11668,204,70,-21,-27,67,-94,-20
,122,2018/03/15 00:37:30.85,-2726,11043,-11635,207,77,8,-28,68,-96,-20
,123,2018/03/15 00:37:30.87,-2702,11081,-11651,189,36,53,-33,54,-87,-10
,124,2018/03/15 00:37:30.89,-2640,11104,-11721,145,40,35,-16,74,-90,-29
,125,2018/03/15 00:37:30.91,-2610,11091,-11690,147,23,-21,-19,75,-94,-28
,126,2018/03/15 00:37:30.93,-2627,11098,-11625,177,11,-68,-24,75,-99,-25
,127,2018/03/15 00:37:30.95,-2654,11047,-11712,157,17,-106,-15,83,-98,-34
,128,2018/03/15 00:37:30.97,-2705,10990,-11690,170,6,-111,-26,77,-103,-25
,129,2018/03/15 00:37:30.99,-2774,11036,-11704,135,16,-55,-29,78,-107,-24
,130,2018/03/15 00:37:31.01,-2692,11021,-11671,88,6,-16,-32,83,-115,-25
,131,2018/03/15 00:37:31.03,-2729,11021,-11797,54,-26,26,-42,68,-110,-13
,132,2018/03/15 00:37:31.05,-2719,11032,-11811,49,-29,43,-68,33,-101,17
,133,2018/03/15 00:37:31.07,-2729,11000,-11729,163,-46,51,-79,16,-95,31
,134,2018/03/15 00:37:31.09,-2720,11019,-11606,202,44,58,-98,-5,-93,51
,135,2018/03/15 00:37:31.11,-2668,11086,-11707,179,115,30,-87,16,-103,35
,136,2018/03/15 00:37:31.13,-2656,11062,-11784,118,102,-13,-82,33,-115,24
,137,2018/03/15 00:37:31.15,-2709,11119,-11790,78,10,-60,-65,66,-131,0
,138,2018/03/15 00:37:31.17,-2625,11088,-11702,78,13,-112,-47,88,-135,-20
,139,2018/03/15 00:37:31.19,-2716,11066,-11758,116,-1,-142,-36,90,-126,-27
,140,2018/03/15 00:37:31.21,-2726,10964,-11798,204,10,-91,-31,93,-124,-31
,141,2018/03/15 00:37:31.23,-2661,10989,-11752,250,-28,-40,-24,108,-132,-42
,142,2018/03/15 00:37:31.25,-2738,10893,-11735,211,6,43,-27,100,-127,-36
,143,2018/03/15 00:37:31.27,-2683,10898,-11829,191,-44,80,-24,108,-132,-42
,144,2018/03/15 00:37:31.29,-2718,10942,-11775,129,-51,113,-20,107,-127,-43
,145,2018/03/15 00:37:31.31,-2653,10945,-11805,74,-26,73,-15,112,-127,-48
,146,2018/03/15 00:37:31.33,-2699,10978,-11777,55,4,56,-14,112,-126,-49
,147,2018/03/15 00:37:31.35,-2613,10966,-11809,-1,37,-5,-18,107,-125,-44
,148,2018/03/15 00:37:31.37,-2622,10991,-11780,-23,14,-75,-19,100,-119,-40
,149,2018/03/15 00:37:31.39,-2620,11035,-11750,-91,-20,-125,-28,103,-131,-37
,150,2018/03/15 00:37:31.41,-2705,10976,-11728,-144,-36,-150,-31,102,-133,-35
,151,2018/03/15 00:37:31.43,-2660,11008,-11764,-161,-77,-114,-28,103,-131,-37
,152,2018/03/15 00:37:31.45,-2782,10974,-11759,-134,-33,-42,-29,107,-136,-39
,153,2018/03/15 00:37:31.47,-2720,11031,-11758,-74,-42,21,-32,106,-138,-37
,154,2018/03/15 00:37:31.49,-2680,11122,-11692,-16,-34,72,-33,110,-143,-38
,155,2018/03/15 00:37:31.51,-2673,11107,-11736,17,-21,59,-29,106,-135,-38
,156,2018/03/15 00:37:31.53,-2631,11147,-11795,71,5,21,-42,95,-137,-26
,157,2018/03/15 00:37:31.55,-2682,11085,-11737,65,-42,-33,-76,57,-133,9
,158,2018/03/15 00:37:31.57,-2709,11083,-11691,87,-26,-79,-70,67,-137,1
,159,2018/03/15 00:37:31.59,-2746,11058,-11694,76,-32,-105,-65,66,-131,0
,160,2018/03/15 00:37:31.61,-2716,10997,-11664,53,-38,-97,-75,54,-129,10
,161,2018/03/15 00:37:31.63,-2707,11021,-11728,17,-48,-97,-79,46,-125,16
,162,2018/03/15 00:37:31.65,-2673,11014,-11766,-4,-61,-96,-69,54,-123,7
,163,2018/03/15 00:37:31.67,-2677,11038,-11697,-17,-71,-87,-68,55,-123,6
,164,2018/03/15 00:37:31.69,-2727,11040,-11718,-23,-94,-73,-64,51,-115,6
,165,2018/03/15 00:37:31.71,-2735,11080,-11751,0,-152,-71,-53,68,-121,-7
,166,2018/03/15 00:37:31.73,-2707,11039,-11760,9,-166,-75,-40,65,-105,-12
,167,2018/03/15 00:37:31.75,-2712,11027,-11681,50,-151,-5,-45,68,-113,-11
,168,2018/03/15 00:37:31.77,-2768,10979,-11613,54,-84,29,-38,80,-118,-21
,169,2018/03/15 00:37:31.79,-2784,11046,-11672,106,-38,88,-16,93,-109,-38
,170,2018/03/15 00:37:31.81,-2730,11102,-11693,44,-25,74,-12,100,-112,-44
,171,2018/03/15 00:37:31.83,-2703,11126,-11722,28,-73,23,-20,94,-114,-37
,172,2018/03/15 00:37:31.85,-2690,11142,-11687,19,-83,-45,-17,97,-114,-40
,173,2018/03/15 00:37:31.87,-2721,11074,-11665,21,-72,-62,-24,92,-116,-34
,174,2018/03/15 00:37:31.89,-2738,11019,-11709,69,-56,-61,-24,99,-123,-37
,175,2018/03/15 00:37:31.91,-2740,11046,-11702,100,-57,-57,-106,10,-116,48
,176,2018/03/15 00:37:31.93,-2738,11047,-11673,138,-51,-35,-124,-9,-115,66
,177,2018/03/15 00:37:31.95,-2781,11033,-11723,149,-37,-8,-104,16,-120,44
,178,2018/03/15 00:37:31.97,-2738,10999,-11730,151,-45,-2,-73,53,-126,10
,179,2018/03/15 00:37:31.99,-2785,10961,-11748,143,-25,-24,-80,40,-120,20
,180,2018/03/15 00:37:32.01,-2754,10917,-11763,154,-35,-8,-59,62,-121,-1
,181,2018/03/15 00:37:32.03,-2750,10952,-11759,104,-22,6,-41,63,-104,-11
,182,2018/03/15 00:37:32.05,-2744,11031,-11771,69,-48,5,-34,51,-85,-8
,183,2018/03/15 00:37:32.07,-2758,10952,-11684,54,-52,-18,-18,86,-104,-34
,184,2018/03/15 00:37:32.09,-2759,10988,-11809,39,-59,-33,-4,102,-106,-49
,185,2018/03/15 00:37:32.11,-2803,10896,-11772,20,-50,-12,11,127,-116,-69
,186,2018/03/15 00:37:32.13,-2817,10976,-11716,7,-60,20,27,149,-122,-88
,187,2018/03/15 00:37:32.15,-2778,11067,-11728,29,-33,46,20,147,-127,-83
,188,2018/03/15 00:37:32.17,-2715,11092,-11712,22,20,8,26,155,-129,-90
,189,2018/03/15 00:37:32.19,-2691,11089,-11766,33,31,-35,39,174,-135,-106
,190,2018/03/15 00:37:32.21,-2779,11076,-11762,47,47,-78,31,164,-133,-97
,191,2018/03/15 00:37:32.23,-2685,11021,-11728,48,43,-116,11,138,-127,-74
,192,2018/03/15 00:37:32.25,-2763,11067,-11692,52,41,-138,10,146,-136,-78
,193,2018/03/15 00:37:32.27,-2736,11018,-11743,42,32,-123,10,144,-134,-77
,194,2018/03/15 00:37:32.29,-2743,10961,-11761,0,-9,-111,16,159,-143,-87
,195,2018/03/15 00:37:32.31,-2753,10974,-11671,8,-21,-77,14,152,-138,-83
,196,2018/03/15 00:37:32.33,-2768,11000,-11784,31,-36,-52,5,130,-125,-67
,197,2018/03/15 00:37:32.35,-2792,11040,-11738,40,-28,-41,17,139,-122,-78
,198,2018/03/15 00:37:32.37,-2721,11089,-11780,45,-46,-64,12,147,-135,-79
,199,2018/03/15 00:37:32.39,-2789,10977,-11769,56,-60,-65,0,130,-130,-65
,200,2018/03/15 00:37:32.41,-2785,10932,-11636,140,-64,2,5,131,-126,-68
,201,2018/03/15 00:37:32.43,-2856,10915,-11611,119,44,48,4,128,-124,-66
,202,2018/03/15 00:37:32.45,-2753,10989,-11665,93,119,69,12,144,-132,-78
,203,2018/03/15 00:37:32.47,-2744,11039,-11787,31,83,52,12,148,-136,-80
,204,2018/03/15 00:37:32.49,-2702,11126,-11726,-2,44,-32,3,133,-130,-68
,205,2018/03/15 00:37:32.51,-2729,11149,-11720,-10,63,-142,23,146,-123,-84
,206,2018/03/15 00:37:32.53,-2724,11108,-11748,34,89,-220,14,126,-112,-70
,207,2018/03/15 00:37:32.55,-2707,10971,-11806,74,84,-229,4,118,-114,-61
,208,2018/03/15 00:37:32.57,-2752,10934,-11775,125,60,-142,-8,107,-115,-49
,209,2018/03/15 00:37:32.59,-2766,10948,-11786,131,53,-26,-126,-17,-109,71
,210,2018/03/15 00:37:32.61,-2695,10916,-11803,126,22,54,-110,-4,-106,57
,211,2018/03/15 00:37:32.63,-2700,10996,-11782,148,7,74,-42,65,-107,-11
,212,2018/03/15 00:37:32.65,-2681,11019,-11765,136,9,63,-3,113,-116,-55
,213,2018/03/15 00:37:32.67,-2671,10995,-11795,124,12,8,32,148,-116,-90
,214,2018/03/15 00:37:32.69,-2615,10920,-11798,93,5,-31,36,157,-121,-96
,215,2018/03/15 00:37:32.71,-2709,10957,-11790,52,-19,-53,53,181,-128,-117
,216,2018/03/15 00:37:32.73,-2748,10974,-11773,20,-21,-69,50,178,-128,-114
,217,2018/03/15 00:37:32.75,-2741,10973,-11755,46,-30,-53,57,185,-128,-121
,218,2018/03/15 00:37:32.77,-2753,11004,-11705,60,10,-66,43,168,-125,-105
,219,2018/03/15 00:37:32.79,-2764,11016,-11795,47,31,-61,39,164,-125,-101
,220,2018/03/15 00:37:32.81,-2768,11019,-11802,74,32,-84,31,164,-133,-97
,221,2018/03/15 00:37:32.83,-2745,10984,-11767,90,38,-72,30,163,-133,-96
,222,2018/03/15 00:37:32.85,-2753,10961,-11790,82,37,-60,33,160,-127,-96
,223,2018/03/15 00:37:32.87,-2721,10956,-11765,109,31,-45,30,153,-123,-91
,224,2018/03/15 00:37:32.89,-2674,10968,-11772,102,37,-44,20,147,-127,-83
,225,2018/03/15 00:37:32.91,-2676,10959,-11769,57,28,-51,10,139,-129,-74
,226,2018/03/15 00:37:32.93,-2760,10973,-11782,39,-1,-51,24,151,-127,-87
,227,2018/03/15 00:37:32.95,-2714,11107,-11691,79,-10,-122,11,149,-138,-80
,228,2018/03/15 00:37:32.97,-2720,11342,-11725,151,36,-351,6,140,-134,-73
,229,2018/03/15 00:37:32.99,-2753,11898,-11770,308,112,-908,10,146,-136,-78
,230,2018/03/15 00:37:33.01,-2520,13038,-12055,631,77,-2343,6,145,-139,-75
,231,2018/03/15 00:37:33.03,-2738,14105,-11755,1247,-105,-4882,-7,150,-157,-71
,232,2018/03/15 00:37:33.05,-2930,13815,-11749,1436,62,-8012,2,147,-145,-74
,233,2018/03/15 00:37:33.07,-3295,12842,-12063,1592,99,-10637,-23,128,-151,-52
,234,2018/03/15 00:37:33.09,-3534,11914,-11995,1796,-19,-12654,-29,126,-155,-48
,235,2018/03/15 00:37:33.11,-3807,11076,-11782,1835,-67,-14026,-17,125,-142,-54
,236,2018/03/15 00:37:33.13,-4200,9930,-11541,1628,225,-14577,-21,123,-144,-51
,237,2018/03/15 00:37:33.15,-4689,8729,-11732,1284,672,-14188,-6,135,-141,-64
,238,2018/03/15 00:37:33.17,-5130,7748,-11890,1045,940,-12952,-14,144,-158,-65
,239,2018/03/15 00:37:33.19,-5557,6824,-12156,758,1095,-10791,-28,132,-160,-52
,240,2018/03/15 00:37:33.21,-5856,6101,-12204,647,1113,-7825,-20,136,-156,-58
,241,2018/03/15 00:37:33.23,-6051,5551,-12237,491,1220,-4207,-23,130,-153,-53
,242,2018/03/15 00:37:33.25,-6136,5156,-12403,340,1270,-29,-20,134,-154,-57
,243,2018/03/15 00:37:33.27,-5763,5012,-12505,71,1077,4520,-8,136,-144,-64
,244,2018/03/15 00:37:33.29,-5279,5539,-12143,-255,930,8910,-16,121,-137,-52
,245,2018/03/15 00:37:33.31,-4644,5808,-12209,-789,969,12856,-11,123,-134,-56
,246,2018/03/15 00:37:33.33,-3881,6208,-12656,-1014,769,16598,1,124,-123,-62
,247,2018/03/15 00:37:33.35,-3078,7339,-12563,-1024,191,19725,20,131,-111,-75
,248,2018/03/15 00:37:33.37,-2015,8791,-12185,-1066,-209,21722,5,108,-103,-56
,249,2018/03/15 00:37:33.39,-1324,9794,-11954,-1165,-173,22664,18,100,-82,-59
,250,2018/03/15 00:37:33.41,-645,10971,-12329,-1124,-224,22730,22,90,-68,-56
,251,2018/03/15 00:37:33.43,-94,12599,-12150,-757,-523,21624,16,79,-63,-47
,252,2018/03/15 00:37:33.45,144,13928,-12133,-606,-511,19220,5,58,-53,-31
,253,2018/03/15 00:37:33.47,281,15026,-12145,-271,-597,15717,2,41,-39,-21
,254,2018/03/15 00:37:33.49,253,15675,-12313,-38,-676,11337,2,45,-43,-23
,255,2018/03/15 00:37:33.51,256,15956,-12343,296,-906,6502,0,66,-66,-33
,256,2018/03/15 00:37:33.53,343,16103,-12176,625,-1117,1362,12,91,-79,-51
,257,2018/03/15 00:37:33.55,159,15497,-12143,799,-1123,-3615,-3,84,-87,-40
,258,2018/03/15 00:37:33.57,-50,14376,-12211,796,-1184,-7916,-24,76,-100,-26
,259,2018/03/15 00:37:33.59,-180,13472,-11950,767,-1272,-11368,-23,92,-115,-34
,260,2018/03/15 00:37:33.61,-466,12350,-11865,554,-1055,-13850,-6,112,-118,-53
,261,2018/03/15 00:37:33.63,-816,11650,-11753,559,-744,-15523,-8,116,-124,-54
,262,2018/03/15 00:37:33.65,-1257,10581,-11765,573,-246,-16407,-20,127,-147,-53
,263,2018/03/15 00:37:33.67,-1892,9420,-11828,640,284,-16256,-33,114,-147,-40
,264,2018/03/15 00:37:33.69,-2502,8440,-12172,699,718,-15071,-46,102,-148,-28
,265,2018/03/15 00:37:33.71,-3233,8106,-12270,798,936,-12166,-53,106,-159,-26
,266,2018/03/15 00:37:33.73,-3514,8020,-12415,581,1013,-10007,-72,93,-165,-10
,267,2018/03/15 00:37:33.75,-3720,8430,-12538,514,864,-8072,-78,79,-157,0
,268,2018/03/15 00:37:33.77,-4042,8335,-12659,408,653,-6313,-78,67,-145,5
,269,2018/03/15 00:37:33.79,-4207,8081,-12680,400,267,-4498,-74,69,-143,2
,270,2018/03/15 00:37:33.81,-4273,7822,-12742,441,-81,-2481,-72,75,-147,-1
,271,2018/03/15 00:37:33.83,-4378,7781,-12568,491,-335,-371,-91,56,-147,17
,272,2018/03/15 00:37:33.85,-4429,7786,-12559,447,-465,1750,-90,47,-137,21
,273,2018/03/15 00:37:33.87,-4318,7765,-12126,306,-459,3771,-82,58,-140,12
,274,2018/03/15 00:37:33.89,-4103,8089,-12199,26,-220,5632,-57,88,-145,-15
,275,2018/03/15 00:37:33.91,-3901,8601,-12385,-221,-152,7166,-45,88,-133,-21
,276,2018/03/15 00:37:33.93,-3673,9045,-12357,-421,-161,8317,-30,101,-131,-35
,277,2018/03/15 00:37:33.95,-3311,9617,-12317,-457,-187,9073,-23,98,-121,-37
,278,2018/03/15 00:37:33.97,-2961,10207,-12383,-368,-207,9262,-13,94,-107,-40
,279,2018/03/15 00:37:33.99,-2766,10661,-12466,-243,-199,9031,-13,100,-113,-43
,280,2018/03/15 00:37:34.01,-2458,11360,-12338,-64,-317,8377,-16,101,-117,-42
,281,2018/03/15 00:37:34.03,-2414,11939,-12306,1,-252,7143,-5,112,-117,-53
,282,2018/03/15 00:37:34.05,-2298,12259,-12436,66,-246,5519,-7,94,-101,-43
,283,2018/03/15 00:37:34.07,-2160,12249,-12427,164,-342,3722,-4,113,-117,-54
,284,2018/03/15 00:37:34.09,-2214,12001,-12305,209,-382,1990,-12,115,-127,-51
,285,2018/03/15 00:37:34.11,-2187,11721,-12078,236,-301,495,-5,122,-127,-58
,286,2018/03/15 00:37:34.13,-2242,11374,-12253,166,-93,-699,-22,115,-137,-46
,287,2018/03/15 00:37:34.15,-2277,10915,-12141,149,16,-1427,-27,107,-134,-40
,288,2018/03/15 00:37:34.17,-2337,10586,-12202,65,154,-1816,-18,120,-138,-51
,289,2018/03/15 00:37:34.19,-2312,10377,-12202,95,238,-1867,-31,113,-144,-41
,290,2018/03/15 00:37:34.21,-2366,10181,-12229,56,361,-1729,-41,98,-139,-28
,291,2018/03/15 00:37:34.23,-2320,10109,-12246,76,412,-1419,-37,114,-151,-38
,292,2018/03/15 00:37:34.25,-2345,10112,-12331,55,463,-1045,-28,119,-147,-45
,293,2018/03/15 00:37:34.27,-2330,10027,-12483,75,415,-629,-31,128,-159,-48
,294,2018/03/15 00:37:34.29,-2283,10063,-12559,104,319,-225,-40,132,-172,-46
,295,2018/03/15 00:37:34.31,-2247,10135,-12443,147,198,92,-16,150,-166,-67
,296,2018/03/15 00:37:34.33,-2238,10322,-12499,181,88,245,-26,138,-164,-56
,297,2018/03/15 00:37:34.35,-2232,10380,-12503,204,-13,238,-22,135,-157,-56
,298,2018/03/15 00:37:34.37,-2285,10392,-12480,157,-99,145,-26,125,-151,-49
,299,2018/03/15 00:37:34.39,-2311,10343,-12502,120,-176,38,-24,118,-142,-47
,300,2018/03/15 00:37:34.41,-2333,10326,-12463,125,-215,-24,-15,121,-136,-53
,301,2018/03/15 00:37:34.43,-2348,10294,-12436,107,-191,-57,-15,124,-139,-54
,302,2018/03/15 00:37:34.45,-2445,10302,-12411,64,-173,-76,-23,107,-130,-42
,303,2018/03/15 00:37:34.47,-2412,10291,-12356,-3,-162,-76,-13,116,-129,-51
,304,2018/03/15 00:37:34.49,-2397,10345,-12369,-49,-93,-83,-8,120,-128,-56
,305,2018/03/15 00:37:34.51,-2463,10378,-12260,-88,9,-131,-14,110,-124,-48
,306,2018/03/15 00:37:34.53,-2487,10392,-12445,-138,76,-193,-15,109,-124,-47
,307,2018/03/15 00:37:34.55,-2445,10420,-12398,-100,78,-247,-16,107,-123,-45
,308,2018/03/15 00:37:34.57,-2372,10257,-12388,-64,109,-246,-26,102,-128,-38
,309,2018/03/15 00:37:34.59,-2412,10378,-12294,2,205,-229,-29,93,-122,-32
,310,2018/03/15 00:37:34.61,-2464,10361,-12347,-45,276,-217,-4,105,-109,-50
,311,2018/03/15 00:37:34.63,-2288,10420,-12447,-92,230,-205,23,118,-95,-70
,312,2018/03/15 00:37:34.65,-2371,10504,-12425,-121,139,-206,26,114,-88,-70
,313,2018/03/15 00:37:34.67,-2271,10492,-12360,-85,66,-191,14,113,-99,-63
,314,2018/03/15 00:37:34.69,-2311,10395,-12342,7,42,-144,14,114,-100,-64
,315,2018/03/15 00:37:34.71,-2397,10431,-12383,105,11,-73,1,113,-112,-57
,316,2018/03/15 00:37:34.73,-2398,10431,-12348,172,-42,-5,-1,109,-110,-54
,317,2018/03/15 00:37:34.75,-2348,10424,-12301,199,-59,58,10,120,-110,-65
,318,2018/03/15 00:37:34.77,-2429,10380,-12383,176,-54,89,12,120,-108,-66
,319,2018/03/15 00:37:34.79,-2394,10389,-12350,182,-80,74,14,118,-104,-66
,320,2018/03/15 00:37:34.81,-2436,10376,-12385,176,-33,19,-6,120,-126,-57
,321,2018/03/15 00:37:34.83,-2335,10378,-12301,201,20,10,-15,116,-131,-50
,322,2018/03/15 00:37:34.85,-2379,10389,-12278,146,111,-43,-7,123,-130,-58
,323,2018/03/15 00:37:34.87,-2369,10383,-12422,140,135,-94,-7,118,-125,-55
,324,2018/03/15 00:37:34.89,-2418,10362,-12404,69,136,-128,-4,136,-140,-66
,325,2018/03/15 00:37:34.91,-2359,10345,-12365,65,118,-141,-26,114,-140,-44
,326,2018/03/15 00:37:34.93,-2308,10372,-12353,22,135,-156,-54,85,-139,-15
,327,2018/03/15 00:37:34.95,-2390,10363,-12401,26,130,-132,-51,91,-142,-20
,328,2018/03/15 00:37:34.97,-2392,10350,-12409,6,135,-97,-26,113,-139,-43
,329,2018/03/15 00:37:34.99,-2384,10292,-12404,17,153,-65,-28,113,-141,-42
,330,2018/03/15 00:37:35.01,-2285,10342,-12432,31,147,-79,-31,121,-152,-45
,331,2018/03/15 00:37:35.03,-2279,10334,-12500,66,113,-42,-31,117,-148,-43
,332,2018/03/15 00:37:35.05,-2339,10367,-12454,51,100,-30,-25,128,-153,-51
,333,2018/03/15 00:37:35.07,-2306,10404,-12483,21,48,-33,-13,144,-157,-65
,334,2018/03/15 00:37:35.09,-2379,10398,-12463,45,2,-67,-28,126,-154,-49
,335,2018/03/15 00:37:35.11,-2277,10424,-12395,19,-10,-72,-8,141,-149,-66
,336,2018/03/15 00:37:35.13,-2335,10364,-12387,48,5,-83,-19,130,-149,-55
,337,2018/03/15 00:37:35.15,-2391,10373,-12415,95,4,-87,-14,130,-144,-58
,338,2018/03/15 00:37:35.17,-2382,10393,-12413,88,26,-78,-15,139,-154,-62
,339,2018/03/15 00:37:35.19,-2386,10386,-12372,104,7,-53,2,134,-132,-68
,340,2018/03/15 00:37:35.21,-2430,10414,-12388,147,7,-42,13,132,-119,-72
,341,2018/03/15 00:37:35.23,-2372,10488,-12367,298,42,-20,-12,124,-136,-56
,342,2018/03/15 00:37:35.25,-2438,10483,-12253,693,175,49,-8,125,-133,-58
,343,2018/03/15 00:37:35.27,-2493,10508,-12038,1815,516,106,-6,123,-129,-58
,344,2018/03/15 00:37:35.29,-2442,11047,-12213,4322,1111,219,-7,105,-112,-49
,345,2018/03/15 00:37:35.31,-2556,11106,-12051,7657,2162,446,34,106,-72,-70
,346,2018/03/15 00:37:35.33,-2507,10636,-12196,10970,3459,709,77,100,-23,-88
,347,2018/03/15 00:37:35.35,-2497,10754,-12964,13834,4613,1036,55,78,-23,-66
,348,2018/03/15 00:37:35.37,-2344,10359,-13807,14920,5067,1277,50,87,-37,-68
,349,2018/03/15 00:37:35.39,-1684,8754,-14101,12867,4552,1206,73,137,-64,-105
,350,2018/03/15 00:37:35.41,-1237,7428,-14340,10516,3918,1026,39,164,-125,-101
,351,2018/03/15 00:37:35.43,-821,6358,-14546,7951,3013,784,-20,143,-163,-61
,352,2018/03/15 00:37:35.45,-542,5677,-14792,5363,2017,464,-76,103,-179,-13
,353,2018/03/15 00:37:35.47,-393,5440,-15003,2869,1057,109,-76,128,-204,-26
,354,2018/03/15 00:37:35.49,-444,5596,-15507,208,114,-276,-62,166,-228,-52
,355,2018/03/15 00:37:35.51,-458,5734,-15533,-2302,-884,-645,-46,182,-228,-68
,356,2018/03/15 00:37:35.53,-552,6128,-15554,-4912,-1774,-1020,-34,197,-231,-81
,357,2018/03/15 00:37:35.55,-725,6384,-15396,-7515,-2665,-1354,-32,193,-225,-80
,358,2018/03/15 00:37:35.57,-874,6674,-14885,-9854,-3522,-1682,-48,174,-222,-63
,359,2018/03/15 00:37:35.59,-994,6957,-14218,-11085,-4119,-2014,-57,156,-213,-49
,360,2018/03/15 00:37:35.61,-1254,7686,-14066,-10792,-4316,-2293,-45,166,-211,-60
,361,2018/03/15 00:37:35.63,-1610,8443,-13638,-9342,-4206,-2481,-54,130,-184,-38
,362,2018/03/15 00:37:35.65,-2041,9173,-13379,-7314,-3705,-2613,-70,110,-180,-20
,363,2018/03/15 00:37:35.67,-2500,9714,-13047,-5098,-2962,-2613,-47,88,-135,-20
,364,2018/03/15 00:37:35.69,-2804,10060,-12914,-3132,-2044,-2576,-46,70,-116,-12
,365,2018/03/15 00:37:35.71,-3052,10071,-12892,-1595,-1165,-2425,-30,70,-100,-20
,366,2018/03/15 00:37:35.73,-3142,9829,-12904,-538,-425,-2130,-35,59,-94,-12
,367,2018/03/15 00:37:35.75,-3183,9500,-12969,190,115,-1717,-7,60,-67,-26
,368,2018/03/15 00:37:35.77,-3085,9099,-13025,703,499,-1192,2,69,-67,-35
,369,2018/03/15 00:37:35.79,-2939,8807,-13074,1053,764,-634,-12,61,-73,-24
,370,2018/03/15 00:37:35.81,-2700,8621,-13153,1228,966,-121,-3,80,-83,-38
,371,2018/03/15 00:37:35.83,-2567,8587,-13272,1241,1067,264,-4,85,-89,-40
,372,2018/03/15 00:37:35.85,-2388,8631,-13399,1126,1017,467,10,116,-106,-63
,373,2018/03/15 00:37:35.87,-2257,8620,-13516,945,932,530,11,119,-108,-65
,374,2018/03/15 00:37:35.89,-2201,8706,-13585,747,726,493,-7,109,-116,-51
,375,2018/03/15 00:37:35.91,-2196,8778,-13599,511,437,373,-3,115,-118,-56
,376,2018/03/15 00:37:35.93,-2179,8858,-13545,213,163,166,8,127,-119,-67
,377,2018/03/15 00:37:35.95,-2116,8873,-13494,-78,-15,-1,13,144,-131,-78
,378,2018/03/15 00:37:35.97,-2288,8892,-13390,-290,-192,-120,8,139,-131,-73
,379,2018/03/15 00:37:35.99,-2368,8913,-13359,-414,-341,-171,20,151,-131,-85
,380,2018/03/15 00:37:36.01,-2416,8996,-13384,-478,-455,-147,9,145,-136,-77
,381,2018/03/15 00:37:36.03,-2535,9076,-13225,-514,-514,-41,4,137,-133,-70
,382,2018/03/15 00:37:36.05,-2588,9136,-13031,-616,-467,70,-2,123,-125,-60
,383,2018/03/15 00:37:36.07,-2667,9382,-13028,-718,-356,136,1,134,-133,-67
,384,2018/03/15 00:37:36.09,-2669,9514,-13158,-733,-290,139,1,129,-128,-65
,385,2018/03/15 00:37:36.11,-2681,9606,-13142,-586,-233,88,-9,129,-138,-60
,386,2018/03/15 00:37:36.13,-2644,9560,-13098,-426,-105,-25,-3,134,-137,-65
,387,2018/03/15 00:37:36.15,-2683,9505,-13134,-231,2,-114,-16,129,-145,-56
,388,2018/03/15 00:37:36.17,-2561,9366,-13230,-130,121,-215,-17,132,-149,-57
,389,2018/03/15 00:37:36.19,-2552,9156,-13304,-107,160,-226,-30,123,-153,-46
,390,2018/03/15 00:37:36.21,-2576,9057,-13262,-88,190,-235,-27,123,-150,-48
,391,2018/03/15 00:37:36.23,-2481,9038,-13341,-127,242,-194,-23,136,-159,-56
,392,2018/03/15 00:37:36.25,-2504,8947,-13345,-194,220,-161,-22,127,-149,-52
,393,2018/03/15 00:37:36.27,-2500,8984,-13445,-413,177,-126,-16,138,-154,-61
,394,2018/03/15 00:37:36.29,-2472,9158,-13458,-600,47,-119,10,162,-152,-86
,395,2018/03/15 00:37:36.31,-2446,9280,-13408,-759,1,-102,35,183,-148,-109
,396,2018/03/15 00:37:36.33,-2414,9430,-13326,-699,-86,-114,35,187,-152,-111
,397,2018/03/15 00:37:36.35,-2489,9536,-13201,-572,-60,-110,22,174,-152,-98
,398,2018/03/15 00:37:36.37,-2504,9589,-13182,-354,-82,-106,10,152,-142,-81
,399,2018/03/15 00:37:36.39,-2511,9593,-13102,-203,-60,-95,-6,140,-146,-67
,400,2018/03/15 00:37:36.41,-2542,9551,-13159,-84,-38,-34,-2,150,-152,-74
,401,2018/03/15 00:37:36.43,-2542,9471,-13106,-16,-39,3,4,155,-151,-79
,402,2018/03/15 00:37:36.45,-2431,9451,-13071,38,7,41,-8,142,-150,-67
,403,2018/03/15 00:37:36.47,-2442,9452,-13077,98,31,52,-8,123,-131,-57
,404,2018/03/15 00:37:36.49,-2354,9379,-13089,82,44,24,-18,129,-147,-55
,405,2018/03/15 00:37:36.51,-2508,9344,-13143,39,39,-33,-12,133,-145,-60
,406,2018/03/15 00:37:36.53,-2424,9383,-13144,-48,-26,-86,-13,137,-150,-62
,407,2018/03/15 00:37:36.55,-2522,9338,-13068,-148,-64,-108,-23,130,-153,-53
,408,2018/03/15 00:37:36.57,-2496,9332,-13059,-263,-97,-142,-25,130,-155,-52
,409,2018/03/15 00:37:36.59,-2559,9337,-13024,-349,-124,-149,-32,129,-161,-48
,410,2018/03/15 00:37:36.61,-2550,9450,-13034,-421,-159,-152,-49,123,-172,-37
,411,2018/03/15 00:37:36.63,-2515,9469,-12997,-498,-189,-146,-35,121,-156,-43
,412,2018/03/15 00:37:36.65,-2554,9612,-13024,-599,-223,-126,40,144,-104,-92
,413,2018/03/15 00:37:36.67,-2677,9613,-12991,-551,-207,-144,51,93,-42,-72
,414,2018/03/15 00:37:36.69,-2628,9775,-13042,-454,-174,-137,64,97,-33,-80
,415,2018/03/15 00:37:36.71,-2628,9809,-12967,-255,-153,-134,60,124,-64,-92
,416,2018/03/15 00:37:36.73,-2658,9827,-12991,-151,-106,-121,51,144,-93,-97
,417,2018/03/15 00:37:36.75,-2679,9714,-13095,6,-118,-57,45,151,-106,-98
,418,2018/03/15 00:37:36.77,-2739,9606,-12924,221,-144,53,31,155,-124,-93
,419,2018/03/15 00:37:36.79,-2660,9587,-12872,297,-3,135,16,150,-134,-83
,420,2018/03/15 00:37:36.81,-2634,9564,-12919,296,97,151,-24,118,-142,-47
,421,2018/03/15 00:37:36.83,-2634,9562,-13068,255,156,128,-23,119,-142,-48
,422,2018/03/15 00:37:36.85,-2596,9566,-13055,231,130,18,-12,132,-144,-60
,423,2018/03/15 00:37:36.87,-2520,9531,-13114,211,91,-82,-46,114,-160,-34
,424,2018/03/15 00:37:36.89,-2448,9460,-13138,147,76,-167,-22,142,-164,-60
,425,2018/03/15 00:37:36.91,-2452,9305,-13193,91,19,-196,-20,145,-165,-62
,426,2018/03/15 00:37:36.93,-2630,9281,-13160,64,-54,-147,-10,148,-158,-69
,427,2018/03/15 00:37:36.95,-2591,9302,-13090,18,-77,-43,-21,141,-162,-60
,428,2018/03/15 00:37:36.97,-2562,9359,-13131,-26,-102,40,-10,147,-157,-68
,429,2018/03/15 00:37:36.99,-2564,9379,-13144,-53,-147,81,-24,140,-164,-58
,430,2018/03/15 00:37:37.01,-2590,9454,-13066,-51,-180,103,-21,144,-165,-61
,431,2018/03/15 00:37:37.03,-2637,9564,-13027,-4,-141,88,-22,137,-159,-57
,432,2018/03/15 00:37:37.05,-2624,9588,-13028,-35,-86,45,-30,125,-155,-47
,433,2018/03/15 00:37:37.07,-2685,9607,-13018,6,-81,-9,-23,128,-151,-52
,434,2018/03/15 00:37:37.09,-2597,9607,-12965,22,-13,-59,-19,132,-151,-56
,435,2018/03/15 00:37:37.11,-2667,9560,-12989,70,18,-66,-26,135,-161,-54
,436,2018/03/15 00:37:37.13,-2603,9584,-12989,84,34,-80,-36,124,-160,-44
,437,2018/03/15 00:37:37.15,-2631,9561,-12985,78,36,-58,-28,129,-157,-50
,438,2018/03/15 00:37:37.17,-2604,9511,-12991,111,65,-45,-30,125,-155,-47
,439,2018/03/15 00:37:37.19,-2591,9513,-13032,143,62,-27,-21,141,-162,-60
,440,2018/03/15 00:37:37.21,-2552,9502,-13044,188,54,-25,-38,140,-178,-51
,441,2018/03/15 00:37:37.23,-2557,9492,-13036,174,47,-18,-55,131,-186,-38
,442,2018/03/15 00:37:37.25,-2572,9405,-13055,145,24,-37,-42,149,-191,-53
,443,2018/03/15 00:37:37.27,-2533,9448,-13052,132,-48,-41,-62,146,-208,-42
,444,2018/03/15 00:37:37.29,-2577,9488,-13079,80,-86,-26,-59,144,-203,-42
,445,2018/03/15 00:37:37.31,-2593,9487,-13002,-2,-108,-13,-55,142,-197,-43
,446,2018/03/15 00:37:37.33,-2591,9475,-13028,-1,-108,1,-54,139,-193,-42
,447,2018/03/15 00:37:37.35,-2636,9471,-13025,12,-90,-19,-52,142,-194,-45
,448,2018/03/15 00:37:37.37,-2593,9503,-13060,37,-97,-7,-56,134,-190,-39
,449,2018/03/15 00:37:37.39,-2597,9540,-12998,47,-78,-32,-59,130,-189,-35
,450,2018/03/15 00:37:37.41,-2576,9543,-13069,36,-60,-53,-50,130,-180,-40
,451,2018/03/15 00:37:37.43,-2552,9474,-13053,64,-63,-87,-55,129,-184,-37
,452,2018/03/15 00:37:37.45,-2576,9475,-13025,49,-28,-87,-60,117,-177,-28
,453,2018/03/15 00:37:37.47,-2578,9480,-13066,68,-13,-77,-57,117,-174,-30
,454,2018/03/15 00:37:37.49,-2686,9434,-13147,111,-6,-68,-52,123,-175,-35
,455,2018/03/15 00:37:37.51,-2657,9370,-13159,165,-57,-16,-47,122,-169,-37
,456,2018/03/15 00:37:37.53,-2683,9337,-13014,207,-25,41,-45,118,-163,-36
,457,2018/03/15 00:37:37.55,-2643,9365,-12981,141,61,61,-62,105,-167,-21
,458,2018/03/15 00:37:37.57,-2546,9481,-13076,49,65,55,-54,110,-164,-28
,459,2018/03/15 00:37:37.59,-2628,9513,-13150,-21,27,15,-52,121,-173,-34
,460,2018/03/15 00:37:37.61,-2577,9442,-13086,-90,-94,-35,-34,135,-169,-50
,461,2018/03/15 00:37:37.63,-2534,9437,-13056,-89,-114,-80,4,90,-86,-47
,462,2018/03/15 00:37:37.65,-2639,9553,-13057,-59,-107,-67,-331,-375,44,353
,463,2018/03/15 00:37:37.67,-2642,9513,-13034,54,-78,-70,-803,-853,50,828
,464,2018/03/15 00:37:37.69,-2661,9458,-13073,173,-18,-51,-890,-921,31,905
,465,2018/03/15 00:37:37.71,-2627,9503,-13058,166,-17,15,-615,-599,-16,607
,466,2018/03/15 00:37:37.73,-2688,9456,-13092,131,-39,66,-367,-291,-76,329
,467,2018/03/15 00:37:37.75,-2717,9447,-13085,136,-46,66,-279,-117,-162,198
,468,2018/03/15 00:37:37.77,-2583,9514,-13012,130,-27,48,-200,10,-210,95
,469,2018/03/15 00:37:37.79,-2597,9513,-13009,149,30,9,-148,85,-233,31
,470,2018/03/15 00:37:37.81,-2652,9474,-13070,165,60,-46,-128,108,-236,10
,471,2018/03/15 00:37:37.83,-2687,9499,-13073,169,55,-81,-99,115,-214,-8
,472,2018/03/15 00:37:37.85,-2596,9455,-13046,112,54,-97,-60,124,-184,-32
,473,2018/03/15 00:37:37.87,-2630,9469,-13125,52,61,-99,-21,152,-173,-65
,474,2018/03/15 00:37:37.89,-2618,9459,-13115,49,30,-73,-12,151,-163,-69
,475,2018/03/15 00:37:37.91,-2513,9371,-13104,78,36,-44,0,136,-136,-68
,476,2018/03/15 00:37:37.93,-2584,9442,-13149,79,40,-21,0,132,-132,-66
,477,2018/03/15 00:37:37.95,-2637,9430,-13077,102,43,2,21,163,-142,-92
,478,2018/03/15 00:37:37.97,-2553,9456,-13135,119,25,0,45,176,-131,-110
,479,2018/03/15 00:37:37.99,-2570,9403,-13080,142,3,15,26,168,-142,-97
,480,2018/03/15 00:37:38.01,-2593,9442,-13104,97,15,20,16,166,-150,-91
,481,2018/03/15 00:37:38.03,-2593,9417,-13059,102,7,-11,-11,156,-167,-72
,482,2018/03/15 00:37:38.05,-2533,9458,-13138,92,-2,-3,-13,154,-167,-70
,483,2018/03/15 00:37:38.07,-2576,9423,-13134,88,10,-19,2,162,-160,-82
,484,2018/03/15 00:37:38.09,-2561,9441,-13106,101,0,-39,-38,153,-191,-57
,485,2018/03/15 00:37:38.11,-2571,9408,-13150,104,-12,-58,-40,143,-183,-51
,486,2018/03/15 00:37:38.13,-2566,9392,-13128,115,-35,-46,-19,152,-171,-66
,487,2018/03/15 00:37:38.15,-2598,9413,-13040,102,-28,-15,-20,156,-176,-68
,488,2018/03/15 00:37:38.17,-2584,9441,-13119,98,2,-28,-21,158,-179,-68
,489,2018/03/15 00:37:38.19,-2586,9401,-13204,102,27,-20,-20,155,-175,-67
,490,2018/03/15 00:37:38.21,-2578,9447,-13168,92,-32,-19,-12,152,-164,-70
,491,2018/03/15 00:37:38.23,-2531,9344,-13197,106,-30,-41,-15,138,-153,-61
,492,2018/03/15 00:37:38.25,-2556,9250,-13087,173,-54,15,-15,130,-145,-57
,493,2018/03/15 00:37:38.27,-2591,9229,-13050,114,58,24,-12,126,-138,-57
,494,2018/03/15 00:37:38.29,-2517,9347,-13119,19,54,36,-8,119,-127,-55
,495,2018/03/15 00:37:38.31,-2581,9408,-13152,-97,15,6,-9,125,-134,-58
,496,2018/03/15 00:37:38.33,-2589,9439,-13052,-137,-83,-49,-11,130,-141,-59
,497,2018/03/15 00:37:38.35,-2585,9480,-13064,-140,-65,-132,3,144,-141,-73
,498,2018/03/15 00:37:38.37,-2589,9479,-13162,-51,-32,-166,-7,135,-142,-64
,499,2018/03/15 00:37:38.39,-2541,9368,-13155,30,-23,-151,3,138,-135,-70
,500,2018/03/15 00:37:38.41,-2653,9322,-13164,96,-18,-93,6,133,-127,-69
,501,2018/03/15 00:37:38.43,-2628,9420,-13122,114,-15,-2,6,136,-130,-71
,502,2018/03/15 00:37:38.45,-2604,9368,-13204,113,-50,53,-4,124,-128,-60
,503,2018/03/15 00:37:38.47,-2600,9407,-13119,136,-65,68,8,144,-136,-76
,504,2018/03/15 00:37:38.49,-2579,9378,-13082,103,-50,53,15,150,-135,-82
,505,2018/03/15 00:37:38.51,-2562,9467,-13019,130,-52,53,8,139,-131,-73
,506,2018/03/15 00:37:38.53,-2612,9469,-13030,91,29,-2,12,144,-132,-78
,507,2018/03/15 00:37:38.55,-2603,9403,-13040,70,52,-38,34,162,-128,-98
,508,2018/03/15 00:37:38.57,-2615,9354,-13125,32,81,3,28,160,-132,-94
,509,2018/03/15 00:37:38.59,-2579,9416,-13108,31,61,56,30,164,-134,-97
,510,2018/03/15 00:37:38.61,-2578,9463,-13093,56,59,57,21,158,-137,-89
,511,2018/03/15 00:37:38.63,-2513,9445,-13128,90,46,45,8,142,-134,-75
,512,2018/03/15 00:37:38.65,-2549,9380,-13176,115,33,40,37,145,-108,-91
,513,2018/03/15 00:37:38.67,-2529,9361,-13189,71,41,14,16,104,-88,-60
,514,2018/03/15 00:37:38.69,-2455,9347,-13177,92,-17,15,10,80,-70,-45
,515,2018/03/15 00:37:38.71,-2469,9309,-13140,14,31,-17,8,63,-55,-35
,516,2018/03/15 00:37:38.73,-2537,9380,-13138,-7,3,-40,2,57,-55,-29
,517,2018/03/15 00:37:38.75,-2547,9353,-13099,-80,40,-68,-15,42,-57,-13
,518,2018/03/15 00:37:38.77,-2582,9445,-13101,-113,3,-78,-19,70,-89,-25
,519,2018/03/15 00:37:38.79,-2593,9404,-13085,-181,29,-116,-27,89,-116,-31
,520,2018/03/15 00:37:38.81,-2641,9479,-13150,-153,-8,-113,-32,89,-121,-28
,521,2018/03/15 00:37:38.83,-2561,9463,-13093,-145,14,-108,-8,121,-129,-56
,522,2018/03/15 00:37:38.85,-2583,9504,-13112,-84,-3,-107,7,142,-135,-74
,523,2018/03/15 00:37:38.87,-2626,9437,-13028,-73,-18,-84,47,170,-123,-108
,524,2018/03/15 00:37:38.89,-2538,9418,-13089,-28,-12,-42,84,236,-152,-160
,525,2018/03/15 00:37:38.91,-2559,9410,-13081,42,-33,-7,97,270,-173,-183
,526,2018/03/15 00:37:38.93,-2578,9449,-13149,35,-32,0,78,270,-192,-174
,527,2018/03/15 00:37:38.95,-2641,9419,-13194,80,-64,-7,70,261,-191,-165
,528,2018/03/15 00:37:38.97,-2624,9368,-13027,142,-97,24,66,260,-194,-163
,529,2018/03/15 00:37:38.99,-2550,9378,-12933,111,21,16,56,248,-192,-152
,530,2018/03/15 00:37:39.01,-2539,9386,-13054,33,68,31,42,229,-187,-135
,531,2018/03/15 00:37:39.03,-2534,9412,-13132,-55,10,-26,31,205,-174,-118
,532,2018/03/15 00:37:39.05,-2544,9525,-13055,-98,-77,-63,39,191,-152,-115
,533,2018/03/15 00:37:39.07,-2601,9515,-13011,-108,-81,-114,28,168,-140,-98
,534,2018/03/15 00:37:39.09,-2591,9455,-13060,-50,-43,-131,19,156,-137,-87
,535,2018/03/15 00:37:39.11,-2552,9395,-13072,1,-57,-113,12,148,-136,-80
,536,2018/03/15 00:37:39.13,-2661,9409,-13038,20,-42,-55,20,158,-138,-89
,537,2018/03/15 00:37:39.15,-2583,9407,-13044,49,-62,25,18,163,-145,-90
,538,2018/03/15 00:37:39.17,-2636,9421,-13131,57,-52,56,6,151,-145,-78
,539,2018/03/15 00:37:39.19,-2626,9497,-13096,67,-64,46,-10,136,-146,-63
,540,2018/03/15 00:37:39.21,-2631,9472,-13113,44,-43,5,-11,134,-145,-61
,541,2018/03/15 00:37:39.23,-2668,9456,-13096,109,-55,7,-9,131,-140,-61
,542,2018/03/15 00:37:39.25,-2656,9416,-13027,65,16,-37,2,134,-132,-68
,543,2018/03/15 00:37:39.27,-2614,9397,-13068,57,22,-47,-1,112,-113,-55
,544,2018/03/15 00:37:39.29,-2571,9403,-13061,30,43,-63,15,123,-108,-69
,545,2018/03/15 00:37:39.31,-2545,9433,-13096,30,21,-81,14,124,-110,-69
,546,2018/03/15 00:37:39.33,-2568,9449,-13113,-12,23,-104,14,123,-109,-68
,547,2018/03/15 00:37:39.35,-2564,9412,-13096,-15,0,-135,18,135,-117,-76
,548,2018/03/15 00:37:39.37,-2522,9431,-13068,-20,-15,-87,12,126,-114,-69
,549,2018/03/15 00:37:39.39,-2564,9393,-13084,-4,3,-48,11,116,-105,-63
,550,2018/03/15 00:37:39.41,-2656,9397,-13088,23,26,-20,10,119,-109,-64
,551,2018/03/15 00:37:39.43,-2647,9408,-13098,37,42,-2,8,126,-118,-67
,552,2018/03/15 00:37:39.45,-2566,9446,-13107,48,20,-10,10,125,-115,-67
,553,2018/03/15 00:37:39.47,-2594,9502,-13044,62,1,-34,14,116,-102,-65
,554,2018/03/15 00:37:39.49,-2559,9486,-13086,62,4,-58,3,108,-105,-55
,555,2018/03/15 00:37:39.51,-2526,9504,-13051,49,1,-91,-3,107,-110,-52
,556,2018/03/15 00:37:39.53,-2605,9433,-13064,52,-8,-106,4,118,-114,-61
,557,2018/03/15 00:37:39.55,-2531,9486,-13033,67,9,-78,0,116,-116,-58
,558,2018/03/15 00:37:39.57,-2637,9451,-13050,90,12,-63,-10,110,-120,-50
,559,2018/03/15 00:37:39.59,-2631,9469,-13182,104,11,-55,-16,109,-125,-46
,560,2018/03/15 00:37:39.61,-2566,9453,-13083,114,-18,-53,-9,112,-121,-51
,561,2018/03/15 00:37:39.63,-2510,9405,-13117,83,-10,-79,-12,101,-113,-44
,562,2018/03/15 00:37:39.65,-2614,9421,-13122,70,-36,-77,-2,111,-113,-54
,563,2018/03/15 00:37:39.67,-2645,9414,-13013,64,-63,-62,-28,97,-125,-34
,564,2018/03/15 00:37:39.69,-2681,9349,-13174,95,-104,-29,-24,102,-126,-39
,565,2018/03/15 00:37:39.71,-2631,9352,-13050,118,-75,9,-11,110,-121,-49
,566,2018/03/15 00:37:39.73,-2559,9394,-12996,88,31,40,-11,108,-119,-48
,567,2018/03/15 00:37:39.75,-2660,9395,-13073,54,86,57,-16,100,-116,-42
,568,2018/03/15 00:37:39.77,-2566,9453,-13109,-1,108,18,-22,89,-111,-33
,569,2018/03/15 00:37:39.79,-2617,9531,-13088,0,38,-74,-21,97,-118,-38
,570,2018/03/15 00:37:39.81,-2527,9534,-13093,-6,28,-174,-23,99,-122,-38
,571,2018/03/15 00:37:39.83,-2595,9438,-13119,17,44,-218,-25,104,-129,-39
,572,2018/03/15 00:37:39.85,-2559,9381,-13144,71,13,-196,-19,105,-124,-43
,573,2018/03/15 00:37:39.87,-2627,9351,-13135,72,-18,-100,-18,99,-117,-40
,574,2018/03/15 00:37:39.89,-2649,9373,-13085,81,-42,-1,-23,98,-121,-37
,575,2018/03/15 00:37:39.91,-2575,9336,-13153,87,-42,42,-33,93,-126,-30
,576,2018/03/15 00:37:39.93,-2630,9385,-13127,98,-70,80,-56,81,-137,-12
,577,2018/03/15 00:37:39.95,-2517,9432,-13101,69,-92,51,-53,70,-123,-8
,578,2018/03/15 00:37:39.97,-2671,9414,-13147,17,-97,11,-23,66,-89,-21
,579,2018/03/15 00:37:39.99,-2670,9304,-13091,-7,-40,-47,-73,28,-101,22
,580,2018/03/15 00:37:40.01,-2554,9357,-13081,4,-17,-74,-108,2,-110,53
,581,2018/03/15 00:37:40.03,-2593,9399,-13089,-25,33,-86,-125,-18,-107,71
,582,2018/03/15 00:37:40.05,-2604,9440,-13069,-37,48,-124,-118,3,-121,57
,583,2018/03/15 00:37:40.07,-2644,9421,-13143,-66,47,-127,-91,40,-131,25
,584,2018/03/15 00:37:40.09,-2693,9413,-13050,-73,45,-137,-76,52,-128,12
,585,2018/03/15 00:37:40.11,-2601,9418,-13073,-69,44,-117,-75,58,-133,8
,586,2018/03/15 00:37:40.13,-2590,9386,-13153,-23,45,-61,-73,64,-137,4
,587,2018/03/15 00:37:40.15,-2549,9436,-13037,42,27,-32,-82,64,-146,9
,588,2018/03/15 00:37:40.17,-2599,9426,-13083,28,33,-29,-62,72,-134,-5
,589,2018/03/15 00:37:40.19,-2575,9446,-13102,14,35,-52,-61,83,-144,-11
,590,2018/03/15 00:37:40.21,-2565,9403,-13108,19,6,-57,-43,103,-146,-30
,591,2018/03/15 00:37:40.23,-2566,9412,-13075,-9,-28,-75,-11,132,-143,-60
,592,2018/03/15 00:37:40.25,-2596,9393,-13035,-32,-26,-84,21,166,-145,-93
,593,2018/03/15 00:37:40.27,-2601,9433,-13071,-55,-31,-74,38,182,-144,-110
,594,2018/03/15 00:37:40.29,-2637,9416,-13068,-56,-48,-67,49,190,-141,-119
,595,2018/03/15 00:37:40.31,-2661,9506,-13056,-54,-79,-58,56,193,-137,-124
,596,2018/03/15 00:37:40.33,-2607,9517,-13054,-48,-61,-62,56,196,-140,-126
,597,2018/03/15 00:37:40.35,-2602,9541,-13043,-9,-56,-69,56,194,-138,-125
,598,2018/03/15 00:37:40.37,-2650,9497,-13053,4,-51,-91,43,180,-137,-111
,599,2018/03/15 00:37:40.39,-2635,9530,-13106,28,-58,-91,25,162,-137,-93
,600,2018/03/15 00:37:40.41,-2709,9447,-13032,37,-69,-83,20,164,-144,-92
,601,2018/03/15 00:37:40.43,-2691,9343,-13141,59,-93,-26,-12,132,-144,-60
,602,2018/03/15 00:37:40.45,-2699,9378,-12958,123,4,76,-23,116,-139,-46
,603,2018/03/15 00:37:40.47,-2652,9457,-13058,115,99,104,-17,127,-144,-55
,604,2018/03/15 00:37:40.49,-2599,9549,-13163,60,125,44,-35,109,-144,-37
,605,2018/03/15 00:37:40.51,-2567,9538,-13126,32,72,-42,-32,109,-141,-38
,606,2018/03/15 00:37:40.53,-2643,9514,-13093,8,32,-170,-40,103,-143,-31
,607,2018/03/15 00:37:40.55,-2620,9435,-13048,20,32,-207,-37,104,-141,-33
,608,2018/03/15 00:37:40.57,-2634,9391,-13098,17,61,-195,-20,108,-128,-44
,609,2018/03/15 00:37:40.59,-2701,9381,-13095,47,40,-110,-24,106,-130,-41
,610,2018/03/15 00:37:40.61,-2608,9364,-13110,77,22,0,-33,100,-133,-33
,611,2018/03/15 00:37:40.63,-2571,9459,-13113,71,4,50,-32,97,-129,-32
,612,2018/03/15 00:37:40.65,-2615,9466,-13162,63,-41,65,-36,93,-129,-28
,613,2018/03/15 00:37:40.67,-2657,9385,-13095,83,-64,51,-35,100,-135,-32
,614,2018/03/15 00:37:40.69,-2696,9447,-13094,72,-56,26,-29,103,-132,-37
,615,2018/03/15 00:37:40.71,-2655,9416,-13098,59,-26,2,-30,98,-128,-34
,616,2018/03/15 00:37:40.73,-2647,9449,-13090,32,3,-38,-32,100,-132,-34
,617,2018/03/15 00:37:40.75,-2643,9510,-13028,30,40,-49,-25,101,-126,-38
,618,2018/03/15 00:37:40.77,-2662,9457,-13073,20,52,-85,-26,100,-126,-37
,619,2018/03/15 00:37:40.79,-2609,9468,-13106,1,60,-97,-33,102,-135,-34
,620,2018/03/15 00:37:40.81,-2645,9427,-13069,-8,67,-101,-44,95,-139,-25
,621,2018/03/15 00:37:40.83,-2668,9425,-13073,7,66,-104,-40,100,-140,-30
,622,2018/03/15 00:37:40.85,-2538,9445,-13093,27,57,-58,-30,97,-127,-33
,623,2018/03/15 00:37:40.87,-2621,9436,-13090,33,78,-43,-30,98,-128,-34
,624,2018/03/15 00:37:40.89,-2540,9414,-13083,19,51,-27,-37,94,-131,-28
,625,2018/03/15 00:37:40.91,-2561,9433,-13140,42,14,-31,-31,88,-119,-28
,626,2018/03/15 00:37:40.93,-2585,9479,-13046,17,7,-36,-34,90,-124,-28
,627,2018/03/15 00:37:40.95,-2581,9449,-13071,13,9,-55,-24,100,-124,-38
,628,2018/03/15 00:37:40.97,-2592,9414,-13059,0,4,-53,-14,110,-124,-48
,629,2018/03/15 00:37:40.99,-2618,9470,-13006,9,-7,-48,-19,107,-126,-44
,630,2018/03/15 00:37:41.01,-2605,9480,-13043,27,-29,-35,-25,105,-130,-40
,631,2018/03/15 00:37:41.03,-2633,9483,-13066,61,-17,-46,-24,98,-122,-37
,632,2018/03/15 00:37:41.05,-2626,9533,-13020,67,0,-67,-41,86,-127,-22
,633,2018/03/15 00:37:41.07,-2600,9518,-13098,69,0,-80,-38,96,-134,-29
,634,2018/03/15 00:37:41.09,-2667,9413,-13009,98,-8,-74,-36,97,-133,-30
,635,2018/03/15 00:37:41.11,-2709,9452,-13090,97,7,-78,-41,80,-121,-19
,636,2018/03/15 00:37:41.13,-2674,9438,-13124,96,25,-73,-42,81,-123,-19
,637,2018/03/15 00:37:41.15,-2629,9480,-13147,112,7,-64,-43,82,-125,-19
,638,2018/03/15 00:37:41.17,-2633,9384,-13155,96,-32,-45,-44,80,-124,-18
,639,2018/03/15 00:37:41.19,-2556,9324,-12991,161,-34,-5,-47,80,-127,-16
,640,2018/03/15 00:37:41.21,-2603,9346,-13027,125,85,24,-38,83,-121,-22
,641,2018/03/15 00:37:41.23,-2600,9371,-13105,86,86,41,-31,85,-116,-27
,642,2018/03/15 00:37:41.25,-2564,9459,-13134,15,93,-13,-38,78,-116,-20
,643,2018/03/15 00:37:41.27,-2531,9542,-13072,-13,29,-91,-32,83,-115,-25
,644,2018/03/15 00:37:41.29,-2565,9482,-13082,4,32,-173,-32,86,-118,-27
,645,2018/03/15 00:37:41.31,-2569,9392,-13141,40,42,-196,-56,65,-121,-4
,646,2018/03/15 00:37:41.33,-2569,9366,-13116,62,27,-183,-54,74,-128,-10
,647,2018/03/15 00:37:41.35,-2617,9324,-13130,73,0,-85,-48,81,-129,-16
,648,2018/03/15 00:37:41.37,-2643,9376,-13112,99,-14,5,-39,89,-128,-25
,649,2018/03/15 00:37:41.39,-2648,9398,-13213,119,-21,46,-44,82,-126,-19
,650,2018/03/15 00:37:41.41,-2580,9470,-13113,116,-47,47,-54,70,-124,-8
,651,2018/03/15 00:37:41.43,-2605,9429,-13104,92,1,15,-50,73,-123,-11
,652,2018/03/15 00:37:41.45,-2636,9408,-13087,103,-16,-13,-45,76,-121,-15
,653,2018/03/15 00:37:41.47,-2670,9391,-13077,102,48,-44,-40,78,-118,-19
,654,2018/03/15 00:37:41.49,-2624,9403,-13112,50,44,-74,-48,73,-121,-12
,655,2018/03/15 00:37:41.51,-2582,9400,-13108,-1,63,-98,-49,68,-117,-9
,656,2018/03/15 00:37:41.53,-2641,9472,-13125,-4,49,-102,-38,78,-116,-20
,657,2018/03/15 00:37:41.55,-2597,9402,-13139,-17,70,-142,-33,88,-121,-27
,658,2018/03/15 00:37:41.57,-2622,9403,-13126,-18,60,-130,-37,98,-135,-30
,659,2018/03/15 00:37:41.59,-2649,9410,-13126,38,53,-77,-48,85,-133,-18
,660,2018/03/15 00:37:41.61,-2564,9365,-13109,69,82,-26,-54,78,-132,-12
,661,2018/03/15 00:37:41.63,-2582,9411,-13129,70,71,14,-72,65,-137,3
,662,2018/03/15 00:37:41.65,-2622,9456,-13174,56,52,12,-67,59,-126,4
,663,2018/03/15 00:37:41.67,-2534,9396,-13106,20,13,-36,-44,71,-115,-13
,664,2018/03/15 00:37:41.69,-2580,9366,-13133,-27,-24,-37,-90,27,-117,31
,665,2018/03/15 00:37:41.71,-2600,9431,-13136,-52,-35,-91,-149,-14,-135,81
,666,2018/03/15 00:37:41.73,-2623,9370,-13114,-65,-32,-78,-173,-52,-121,112
,667,2018/03/15 00:37:41.75,-2632,9453,-13113,-14,-13,-78,-154,-24,-130,89
,668,2018/03/15 00:37:41.77,-2587,9471,-13115,24,-1,-55,-138,-7,-131,72
,669,2018/03/15 00:37:41.79,-2639,9462,-13099,45,4,-74,-121,15,-136,53
,670,2018/03/15 00:37:41.81,-2655,9457,-13112,49,-13,-77,-123,18,-141,52
,671,2018/03/15 00:37:41.83,-2608,9426,-13097,36,-9,-79,-111,26,-137,42
,672,2018/03/15 00:37:41.85,-2659,9358,-13073,18,-18,-80,-84,55,-139,14
,673,2018/03/15 00:37:41.87,-2622,9432,-13135,2,-42,-54,-70,69,-139,0
,674,2018/03/15 00:37:41.89,-2659,9397,-13185,24,-43,-27,-70,66,-136,2
,675,2018/03/15 00:37:41.91,-2623,9364,-13122,68,-68,13,-58,83,-141,-12
,676,2018/03/15 00:37:41.93,-2610,9402,-13014,89,-3,9,-42,109,-151,-33
,677,2018/03/15 00:37:41.95,-2609,9383,-13050,40,70,20,6,154,-148,-80
,678,2018/03/15 00:37:41.97,-2607,9454,-13123,-17,53,-17,61,191,-130,-126
,679,2018/03/15 00:37:41.99,-2570,9515,-13115,-55,-15,-68,76,202,-126,-139
,680,2018/03/15 00:37:42.01,-2607,9553,-13074,-63,-33,-127,65,193,-128,-129
,681,2018/03/15 00:37:42.03,-2712,9479,-13059,-42,-42,-172,45,185,-140,-115
,682,2018/03/15 00:37:42.05,-2659,9405,-13124,16,-32,-144,39,169,-130,-104
,683,2018/03/15 00:37:42.07,-2630,9395,-13095,70,-37,-73,32,163,-131,-97
,684,2018/03/15 00:37:42.09,-2768,9352,-13090,83,-76,-3,23,157,-134,-90
,685,2018/03/15 00:37:42.11,-2651,9432,-13110,79,-85,49,13,156,-143,-84
,686,2018/03/15 00:37:42.13,-2531,9356,-13127,56,-125,78,2,136,-134,-69
,687,2018/03/15 00:37:42.15,-2708,9441,-13112,61,-71,17,6,138,-132,-72
,688,2018/03/15 00:37:42.17,-2696,9412,-13080,51,-57,-28,-10,121,-131,-55
,689,2018/03/15 00:37:42.19,-2728,9364,-13132,22,21,-42,-13,108,-121,-47
,690,2018/03/15 00:37:42.21,-2644,9426,-13104,8,17,-75,-22,99,-121,-38
,691,2018/03/15 00:37:42.23,-2648,9418,-13122,-8,40,-88,-27,95,-122,-34
,692,2018/03/15 00:37:42.25,-2663,9423,-13099,-51,57,-111,-34,91,-125,-28
,693,2018/03/15 00:37:42.27,-2540,9448,-13131,-72,61,-133,-38,82,-120,-22
,694,2018/03/15 00:37:42.29,-2632,9395,-13092,-35,29,-108,-43,81,-124,-19
,695,2018/03/15 00:37:42.31,-2665,9420,-13065,2,38,-48,-47,86,-133,-19
,696,2018/03/15 00:37:42.33,-2662,9422,-13123,35,37,-5,-54,76,-130,-11
,697,2018/03/15 00:37:42.35,-2612,9423,-13109,45,22,30,-49,83,-132,-17
,698,2018/03/15 00:37:42.37,-2618,9448,-13105,57,20,42,-43,83,-126,-20
,699,2018/03/15 00:37:42.39,-2601,9464,-13111,41,-7,2,-38,80,-118,-21
,700,2018/03/15 00:37:42.41,-2650,9495,-13069,29,-7,-30,-22,94,-116,-36
,701,2018/03/15 00:37:42.43,-2608,9470,-13107,33,9,-79,-18,104,-122,-43
,702,2018/03/15 00:37:42.45,-2573,9459,-13044,35,7,-83,-13,95,-108,-41
,703,2018/03/15 00:37:42.47,-2611,9424,-13063,14,-6,-115,-17,86,-103,-34
,704,2018/03/15 00:37:42.49,-2631,9416,-13115,24,-10,-82,-31,81,-112,-25
,705,2018/03/15 00:37:42.51,-2650,9426,-13062,8,-7,-65,-25,84,-109,-29
,706,2018/03/15 00:37:42.53,-2573,9444,-13066,0,-17,-56,-21,85,-106,-32
,707,2018/03/15 00:37:42.55,-2677,9437,-13110,9,2,-56,-29,66,-95,-18
,708,2018/03/15 00:37:42.57,-2624,9515,-13132,-5,-17,-52,-27,73,-100,-23
,709,2018/03/15 00:37:42.59,-2658,9432,-13138,2,-40,-68,-34,72,-106,-19
,710,2018/03/15 00:37:42.61,-2672,9427,-13042,86,-39,-31,-26,79,-105,-26
,711,2018/03/15 00:37:42.63,-2659,9319,-13071,114,54,35,-30,80,-110,-25
,712,2018/03/15 00:37:42.65,-2641,9404,-13100,118,90,75,-39,78,-117,-19
,713,2018/03/15 00:37:42.67,-2607,9447,-13128,37,87,41,-40,69,-109,-14
,714,2018/03/15 00:37:42.69,-2601,9513,-13125,-21,55,-32,-41,70,-111,-14
,715,2018/03/15 00:37:42.71,-2562,9527,-13078,-34,32,-126,-36,80,-116,-22
,716,2018/03/15 00:37:42.73,-2556,9424,-13115,-18,32,-213,-32,80,-112,-24
,717,2018/03/15 00:37:42.75,-2596,9386,-13108,-28,40,-188,-30,83,-113,-26
,718,2018/03/15 00:37:42.77,-2638,9394,-13108,-3,10,-126,-17,94,-111,-38
,719,2018/03/15 00:37:42.79,-2659,9354,-13052,32,-3,-31,-28,82,-110,-27
,720,2018/03/15 00:37:42.81,-2655,9456,-13114,22,-20,19,-32,85,-117,-26
,721,2018/03/15 00:37:42.83,-2623,9424,-13128,11,-34,42,-40,84,-124,-22
,722,2018/03/15 00:37:42.85,-2569,9441,-13114,12,-63,29,-37,83,-120,-23
,723,2018/03/15 00:37:42.87,-2549,9386,-13069,49,-75,8,-53,77,-130,-12
,724,2018/03/15 00:37:42.89,-2668,9450,-13056,26,-44,-13,-58,77,-135,-9
,725,2018/03/15 00:37:42.91,-2654,9465,-13063,22,6,-32,-58,75,-133,-8
,726,2018/03/15 00:37:42.93,-2665,9498,-13043,21,20,-48,-50,85,-135,-17
,727,2018/03/15 00:37:42.95,-2625,9470,-13034,22,38,-86,-58,69,-127,-5
,728,2018/03/15 00:37:42.97,-2601,9462,-13077,16,28,-114,-50,79,-129,-14
,729,2018/03/15 00:37:42.99,-2658,9427,-13089,13,47,-143,-52,79,-131,-13
,730,2018/03/15 00:37:43.01,-2684,9410,-13042,7,46,-112,-46,83,-129,-18
,731,2018/03/15 00:37:43.03,-2600,9390,-13093,45,60,-80,-48,82,-130,-17
,732,2018/03/15 00:37:43.05,-2619,9389,-13085,84,69,-43,-60,68,-128,-4
,733,2018/03/15 00:37:43.07,-2623,9431,-13165,84,50,-16,-57,70,-127,-6
,734,2018/03/15 00:37:43.09,-2591,9474,-13090,65,2,-33,-54,75,-129,-10
,735,2018/03/15 00:37:43.11,-2580,9436,-13071,26,-12,-34,-26,98,-124,-36
,736,2018/03/15 00:37:43.13,-2598,9436,-13058,-5,-38,-64,36,160,-124,-98
,737,2018/03/15 00:37:43.15,-2674,9457,-13069,3,-38,-82,44,162,-118,-103
,738,2018/03/15 00:37:43.17,-2608,9464,-13073,-8,-45,-76,37,149,-112,-93
,739,2018/03/15 00:37:43.19,-2650,9461,-13055,-3,-12,-81,30,144,-114,-87
,740,2018/03/15 00:37:43.21,-2644,9472,-12988,43,-17,-52,16,133,-117,-74
,741,2018/03/15 00:37:43.23,-2704,9453,-13092,35,15,-81,2,128,-126,-65
,742,2018/03/15 00:37:43.25,-2714,9459,-13101,22,9,-85,-12,117,-129,-52
,743,2018/03/15 00:37:43.27,-2638,9499,-13136,1,-26,-79,-17,110,-127,-46
,744,2018/03/15 00:37:43.29,-2676,9378,-13164,31,-61,-48,-21,106,-127,-42
,745,2018/03/15 00:37:43.31,-2589,9375,-13042,92,-31,17,-18,99,-117,-40
,746,2018/03/15 00:37:43.33,-2689,9394,-13034,91,106,54,-32,89,-121,-28
,747,2018/03/15 00:37:43.35,-2676,9437,-13078,90,106,67,-39,71,-110,-16
,748,2018/03/15 00:37:43.37,-2602,9522,-13089,50,98,-11,-37,71,-108,-17
,749,2018/03/15 00:37:43.39,-2597,9557,-13059,36,49,-102,-27,85,-112,-29
,750,2018/03/15 00:37:43.41,-2538,9466,-13091,12,69,-184,-32,84,-116,-26
,751,2018/03/15 00:37:43.43,-2607,9422,-13137,33,59,-200,-50,73,-123,-11
,752,2018/03/15 00:37:43.45,-2607,9353,-13079,49,17,-136,-53,75,-128,-11
,753,2018/03/15 00:37:43.47,-2621,9365,-13114,40,20,-40,-52,76,-128,-12
,754,2018/03/15 00:37:43.49,-2641,9433,-13097,48,-6,26,-52,69,-121,-8
,755,2018/03/15 00:37:43.51,-2617,9414,-13122,47,-15,52,-47,73,-120,-13
,756,2018/03/15 00:37:43.53,-2639,9478,-13125,77,-68,4,-46,78,-124,-16
,757,2018/03/15 00:37:43.55,-2647,9433,-13080,35,-55,-33,-58,70,-128,-6
,758,2018/03/15 00:37:43.57,-2660,9287,-13068,31,-44,-66,-49,78,-127,-14
,759,2018/03/15 00:37:43.59,-2685,9370,-13050,42,-11,-56,-40,83,-123,-21
,760,2018/03/15 00:37:43.61,-2676,9393,-13092,-3,23,-42,-41,80,-121,-19
,761,2018/03/15 00:37:43.63,-2622,9431,-13094,17,31,-59,-51,68,-119,-8
,762,2018/03/15 00:37:43.65,-2571,9450,-13120,-1,25,-85,-46,70,-116,-12
,763,2018/03/15 00:37:43.67,-2623,9465,-13122,26,10,-115,-33,74,-107,-20
,764,2018/03/15 00:37:43.69,-2616,9488,-13065,36,38,-123,-34,79,-113,-22
,765,2018/03/15 00:37:43.71,-2597,9402,-13094,41,57,-115,-41,77,-118,-18
,766,2018/03/15 00:37:43.73,-2673,9413,-13120,80,48,-67,-36,79,-115,-21
,767,2018/03/15 00:37:43.75,-2580,9342,-13112,111,25,-15,-35,85,-120,-25
,768,2018/03/15 00:37:43.77,-2576,9369,-13098,56,19,3,-46,84,-130,-19
,769,2018/03/15 00:37:43.79,-2535,9394,-13075,26,10,-31,-38,87,-125,-24
,770,2018/03/15 00:37:43.81,-2619,9435,-13127,13,-14,-67,-51,72,-123,-10
,771,2018/03/15 00:37:43.83,-2618,9448,-13097,-9,-83,-103,-80,43,-123,18
,772,2018/03/15 00:37:43.85,-2623,9515,-13059,-8,-69,-90,-151,-39,-112,95
,773,2018/03/15 00:37:43.87,-2614,9443,-13069,10,-63,-70,-220,-111,-109,165
,774,2018/03/15 00:37:43.89,-2678,9474,-13013,85,-58,-27,-247,-131,-116,189
,775,2018/03/15 00:37:43.91,-2690,9479,-13054,162,-10,10,-231,-111,-120,171
,776,2018/03/15 00:37:43.93,-2717,9480,-13124,257,4,40,-206,-83,-123,144
,777,2018/03/15 00:37:43.95,-2668,9519,-13106,318,-15,88,-178,-43,-135,110
,778,2018/03/15 00:37:43.97,-2705,9459,-13173,372,-14,115,-132,12,-144,60
,779,2018/03/15 00:37:43.99,-2721,9413,-13021,466,-22,109,-75,73,-148,1
,780,2018/03/15 00:37:44.01,-2700,9387,-13023,401,97,70,-81,66,-147,7
,781,2018/03/15 00:37:44.03,-2715,9409,-13071,368,131,24,-74,72,-146,1
,782,2018/03/15 00:37:44.05,-2632,9386,-13114,268,103,-52,-53,89,-142,-18
,783,2018/03/15 00:37:44.07,-2581,9407,-13117,222,57,-82,-51,92,-143,-20
,784,2018/03/15 00:37:44.09,-2595,9262,-13130,209,71,-138,-44,94,-138,-25
,785,2018/03/15 00:37:44.11,-2619,9253,-13253,198,83,-122,-41,102,-143,-30
,786,2018/03/15 00:37:44.13,-2520,9217,-13253,238,67,-75,-49,93,-142,-22
,787,2018/03/15 00:37:44.15,-2554,9222,-13163,279,74,1,-46,93,-139,-23
,788,2018/03/15 00:37:44.17,-2569,9323,-13139,394,79,84,-51,90,-141,-19
,789,2018/03/15 00:37:44.19,-2696,9459,-13123,804,169,225,-44,88,-132,-22
,790,2018/03/15 00:37:44.21,-2850,9389,-13002,1783,419,558,-60,87,-147,-13
,791,2018/03/15 00:37:44.23,-2850,9596,-13427,3033,800,1115,-77,60,-137,8
,792,2018/03/15 00:37:44.25,-2674,9846,-13213,4453,975,1623,-139,-30,-109,84
,793,2018/03/15 00:37:44.27,-2634,9575,-13219,5600,1404,2020,-197,-94,-103,145
,794,2018/03/15 00:37:44.29,-2559,9078,-13294,6626,1839,2514,-185,-79,-106,132
,795,2018/03/15 00:37:44.31,-2433,8856,-13640,7644,2090,2974,-144,-36,-108,90
,796,2018/03/15 00:37:44.33,-2108,8740,-13865,8355,2240,3330,-99,8,-107,45
,797,2018/03/15 00:37:44.35,-1885,8427,-14076,8844,2379,3604,-52,62,-114,-5
,798,2018/03/15 00:37:44.37,-1745,8007,-14411,9002,2414,3768,-37,76,-113,-19
,799,2018/03/15 00:37:44.39,-1529,7645,-14546,9017,2272,3920,-39,61,-100,-11
,800,2018/03/15 00:37:44.41,-1360,7216,-14627,8901,2180,3999,-35,63,-98,-14
,801,2018/03/15 00:37:44.43,-1167,6856,-14886,8885,2086,4032,-5,91,-96,-43
,802,2018/03/15 00:37:44.45,-1025,6502,-15046,8764,1955,4042,24,129,-105,-76
,803,2018/03/15 00:37:44.47,-874,6151,-15115,8574,1869,3974,13,122,-109,-67
,804,2018/03/15 00:37:44.49,-701,5953,-15439,8307,1721,3832,0,98,-98,-49
,805,2018/03/15 00:37:44.51,-582,5545,-15411,7834,1439,3636,-28,71,-99,-21
,806,2018/03/15 00:37:44.53,-458,5139,-15351,7130,1269,3294,-78,25,-103,26
,807,2018/03/15 00:37:44.55,-347,4960,-15619,6527,1132,2882,-104,-5,-99,54
,808,2018/03/15 00:37:44.57,-274,4641,-15675,5899,912,2344,-86,26,-112,30
,809,2018/03/15 00:37:44.59,-244,4345,-15606,5366,716,1763,-82,35,-117,23
,810,2018/03/15 00:37:44.61,-287,3991,-15724,5000,647,1262,-100,21,-121,39
,811,2018/03/15 00:37:44.63,-248,3516,-15802,4978,641,951,-88,33,-121,27
,812,2018/03/15 00:37:44.65,-283,3326,-15901,5270,731,787,-47,72,-119,-12
,813,2018/03/15 00:37:44.67,-276,2975,-15946,5441,887,752,-11,100,-111,-44
,814,2018/03/15 00:37:44.69,-112,2798,-15874,5339,1070,724,11,104,-93,-57
,815,2018/03/15 00:37:44.71,-60,2580,-16051,5057,1281,636,-21,70,-91,-24
,816,2018/03/15 00:37:44.73,74,2276,-16270,4654,1317,479,-64,35,-99,14
,817,2018/03/15 00:37:44.75,181,1996,-16291,4150,1173,325,-112,-15,-97,63
,818,2018/03/15 00:37:44.77,306,1726,-16286,3517,1021,91,-95,-10,-85,52
,819,2018/03/15 00:37:44.79,407,1399,-16437,2824,773,-99,-152,-53,-99,102
,820,2018/03/15 00:37:44.81,436,1188,-16566,1985,468,-313,542,655,-113,-598
,821,2018/03/15 00:37:44.83,382,1062,-16561,1059,73,-457,1922,1784,138,-1853
,822,2018/03/15 00:37:44.85,465,1044,-16432,321,-187,-543,1944,1793,151,-1868
,823,2018/03/15 00:37:44.87,455,1058,-16384,-70,-277,-580,1928,1795,133,-1861
,824,2018/03/15 00:37:44.89,402,1122,-16467,-203,-347,-586,1040,1542,-502,-1291
,825,2018/03/15 00:37:44.91,346,1219,-16421,-275,-431,-590,-102,112,-214,-5
,826,2018/03/15 00:37:44.93,303,1345,-16383,-291,-451,-583,26,135,-109,-80
,827,2018/03/15 00:37:44.95,267,1415,-16344,-233,-453,-585,55,216,-161,-135
,828,2018/03/15 00:37:44.97,208,1458,-16318,-231,-385,-585,-238,-68,-170,153
,829,2018/03/15 00:37:44.99,58,1553,-16348,-225,-344,-567,-64,101,-165,-18
,830,2018/03/15 00:37:45.01,-9,1599,-16260,-274,-346,-491,-194,-29,-165,111
,831,2018/03/15 00:37:45.03,3,1694,-16223,-312,-307,-370,-252,-75,-177,163
,832,2018/03/15 00:37:45.05,-99,1681,-16157,-285,-194,-215,-645,-485,-160,565
,833,2018/03/15 00:37:45.07,24,1824,-16110,-215,-35,-35,-495,-310,-185,402
,834,2018/03/15 00:37:45.09,-98,2005,-16151,-193,167,56,-280,-80,-200,180
,835,2018/03/15 00:37:45.11,-4,2123,-16250,-195,242,52,-272,-72,-200,172
,836,2018/03/15 00:37:45.13,105,2224,-16290,-195,251,-16,-302,-109,-193,205
,837,2018/03/15 00:37:45.15,190,2229,-16237,-202,227,-143,-462,-283,-179,372
,838,2018/03/15 00:37:45.17,171,2175,-16303,-233,203,-240,-504,-337,-167,420
,839,2018/03/15 00:37:45.19,231,2138,-16263,-242,157,-268,-888,-742,-146,815
,840,2018/03/15 00:37:45.21,111,2032,-16241,-248,102,-223,-10,171,-181,-80
,841,2018/03/15 00:37:45.23,161,2097,-16269,-277,14,-99,425,576,-151,-500
,842,2018/03/15 00:37:45.25,100,2126,-16197,-360,-37,38,350,489,-139,-419
,843,2018/03/15 00:37:45.27,163,2199,-16231,-404,-86,147,286,412,-126,-349
,844,2018/03/15 00:37:45.29,37,2278,-16219,-493,-115,197,94,207,-113,-150
,845,2018/03/15 00:37:45.31,123,2343,-16268,-521,-147,203,-98,13,-111,42
,846,2018/03/15 00:37:45.33,70,2492,-16179,-464,-162,178,-272,-183,-89,227
,847,2018/03/15 00:37:45.35,32,2394,-16260,-403,-145,156,-428,-355,-73,391
,848,2018/03/15 00:37:45.37,77,2474,-16100,-229,-131,127,-216,-140,-76,178
,849,2018/03/15 00:37:45.39,17,2471,-16138,-232,27,81,138,224,-86,-181
,850,2018/03/15 00:37:45.41,29,2530,-16255,-240,102,1,202,271,-69,-236
,851,2018/03/15 00:37:45.43,164,2585,-16293,-234,89,-88,184,291,-107,-237
,852,2018/03/15 00:37:45.45,80,2559,-16258,-161,34,-189,181,257,-76,-219
,853,2018/03/15 00:37:45.47,148,2504,-16277,-65,-8,-192,166,254,-88,-210
,854,2018/03/15 00:37:45.49,69,2342,-16282,30,-24,-202,163,256,-93,-209
,855,2018/03/15 00:37:45.51,108,2270,-16292,140,-63,-119,148,249,-101,-198
,856,2018/03/15 00:37:45.53,58,2203,-16274,150,-96,-37,102,203,-101,-152
,857,2018/03/15 00:37:45.55,82,2206,-16279,106,-100,31,78,168,-90,-123
,858,2018/03/15 00:37:45.57,22,2146,-16290,80,-133,64,61,153,-92,-107
,859,2018/03/15 00:37:45.59,19,2194,-16264,102,-153,64,48,144,-96,-96
,860,2018/03/15 00:37:45.61,4,2190,-16251,96,-119,55,38,138,-100,-88
,861,2018/03/15 00:37:45.63,-24,2171,-16232,50,-73,22,26,120,-94,-73
,862,2018/03/15 00:37:45.65,20,2162,-16190,73,17,-10,-257,-172,-85,214
,863,2018/03/15 00:37:45.67,-69,2241,-16203,82,60,-34,-676,-604,-72,640
,864,2018/03/15 00:37:45.69,-29,2237,-16228,17,85,-28,-707,-647,-60,677
,865,2018/03/15 00:37:45.71,79,2256,-16298,-38,82,-15,-266,-210,-56,238
,866,2018/03/15 00:37:45.73,-12,2335,-16334,-118,46,-61,-152,-106,-46,129
,867,2018/03/15 00:37:45.75,28,2314,-16240,-160,8,-80,121,140,-19,-130
,868,2018/03/15 00:37:45.77,76,2309,-16222,-123,14,-120,210,229,-19,-219
,869,2018/03/15 00:37:45.79,100,2336,-16209,-71,28,-106,373,404,-31,-388
,870,2018/03/15 00:37:45.81,-18,2291,-16240,-36,59,-106,377,406,-29,-391
,871,2018/03/15 00:37:45.83,6,2320,-16225,-16,55,-62,319,351,-32,-335
,872,2018/03/15 00:37:45.85,26,2279,-16210,-67,29,-47,236,281,-45,-258
,873,2018/03/15 00:37:45.87,36,2353,-16209,-98,14,-43,33,85,-52,-59
,874,2018/03/15 00:37:45.89,8,2417,-16249,-95,13,-43,-384,-324,-60,354
,875,2018/03/15 00:37:45.91,119,2452,-16265,-81,-17,-71,79,144,-65,-111
,876,2018/03/15 00:37:45.93,90,2365,-16215,-70,-24,-75,7,76,-69,-41
,877,2018/03/15 00:37:45.95,21,2384,-16251,-57,-48,-89,-5,75,-80,-35
,878,2018/03/15 00:37:45.97,67,2355,-16267,-57,-96,-86,-333,-255,-78,294
,879,2018/03/15 00:37:45.99,79,2344,-16201,-73,-71,-87,-309,-241,-68,275
,880,2018/03/15 00:37:46.01,45,2318,-16204,-81,-40,-93,-111,-39,-72,75
,881,2018/03/15 00:37:46.03,19,2375,-16292,-60,-43,-64,298,396,-98,-347
,882,2018/03/15 00:37:46.05,-99,2329,-16238,0,-54,-7,32,131,-99,-81
,883,2018/03/15 00:37:46.07,-2,2392,-16246,66,-71,24,-148,-32,-116,90
,884,2018/03/15 00:37:46.09,-53,2389,-16096,81,-7,33,-131,-8,-123,69
,885,2018/03/15 00:37:46.11,20,2452,-16139,62,127,2,0,138,-138,-69
,886,2018/03/15 00:37:46.13,-18,2494,-16241,-9,149,-72,322,425,-103,-373
,887,2018/03/15 00:37:46.15,64,2500,-16320,-55,86,-175,157,195,-38,-176
,888,2018/03/15 00:37:46.17,74,2457,-16242,-94,-64,-138,-224,-80,-144,152
,889,2018/03/15 00:37:46.19,-9,2465,-16201,-131,-29,-223,-451,-255,-196,353
,890,2018/03/15 00:37:46.21,-30,2380,-16240,-87,40,-261,-435,-245,-190,340
,891,2018/03/15 00:37:46.23,52,2321,-16292,-107,112,-282,-637,-454,-183,545
,892,2018/03/15 00:37:46.25,18,2329,-16214,-143,66,-186,-580,-361,-219,470
,893,2018/03/15 00:37:46.27,91,2377,-16200,-203,23,-117,-589,-373,-216,481
,894,2018/03/15 00:37:46.29,11,2358,-16285,-262,7,-69,-424,-201,-223,312
,895,2018/03/15 00:37:46.31,79,2430,-16246,-278,-35,-79,-70,128,-198,-29
,896,2018/03/15 00:37:46.33,88,2310,-16184,-297,-24,-79,-53,108,-161,-27
,897,2018/03/15 00:37:46.35,115,2410,-16273,-249,-44,-87,-301,-153,-148,227
,898,2018/03/15 00:37:46.37,16,2427,-16267,-276,-42,-89,-270,-123,-147,196
,899,2018/03/15 00:37:46.39,5,2455,-16239,-334,-59,-82,8,150,-142,-79
,900,2018/03/15 00:37:46.41,9,2505,-16198,-315,-87,-74,-87,44,-131,21
,901,2018/03/15 00:37:46.43,12,2549,-16200,-332,-102,-74,-217,-90,-127,153
,902,2018/03/15 00:37:46.45,42,2511,-16269,-319,-134,-109,-449,-338,-111,393
,903,2018/03/15 00:37:46.47,75,2600,-16218,-313,-126,-124,71,180,-109,-125
,904,2018/03/15 00:37:46.49,-87,2555,-16212,-283,-128,-128,18,96,-78,-57
,905,2018/03/15 00:37:46.51,14,2593,-16176,-236,-80,-141,-551,-485,-66,518
,906,2018/03/15 00:37:46.53,3,2587,-16206,-200,-80,-105,-322,-265,-57,293
,907,2018/03/15 00:37:46.55,-38,2625,-16197,-171,-71,-100,-220,-167,-53,193
,908,2018/03/15 00:37:46.57,-17,2666,-16209,-166,-42,-87,266,348,-82,-307
,909,2018/03/15 00:37:46.59,-47,2670,-16203,-187,-56,-82,-35,50,-85,-7
,910,2018/03/15 00:37:46.61,-10,2669,-16196,-159,-73,-102,204,301,-97,-252
,911,2018/03/15 00:37:46.63,-23,2656,-16162,-187,-71,-125,847,968,-121,-907
,912,2018/03/15 00:37:46.65,-43,2674,-16159,-224,-85,-137,772,880,-108,-826
,913,2018/03/15 00:37:46.67,-67,2680,-16188,-274,-105,-188,149,240,-91,-194
,914,2018/03/15 00:37:46.69,-3,2665,-16148,-335,-98,-177,-474,-386,-88,430
,915,2018/03/15 00:37:46.71,-52,2647,-16172,-414,-93,-190,113,217,-104,-165
,916,2018/03/15 00:37:46.73,-46,2702,-16167,-443,-76,-207,115,209,-94,-162
,917,2018/03/15 00:37:46.75,-17,2724,-16198,-489,-113,-225,518,621,-103,-569
,918,2018/03/15 00:37:46.77,-81,2710,-16216,-623,-142,-276,51,134,-83,-92
,919,2018/03/15 00:37:46.79,-59,2803,-16109,-767,-191,-363,-423,-332,-91,377
,920,2018/03/15 00:37:46.81,-57,2778,-16142,-1005,-205,-490,157,273,-116,-215
,921,2018/03/15 00:37:46.83,-122,2730,-16074,-1287,-218,-645,436,561,-125,-498
,922,2018/03/15 00:37:46.85,-153,2712,-16129,-1618,-259,-825,-406,-297,-109,351
,923,2018/03/15 00:37:46.87,-142,2679,-16265,-2039,-341,-970,128,268,-140,-198
,924,2018/03/15 00:37:46.89,-87,2691,-16056,-2556,-459,-1129,282,421,-139,-351
,925,2018/03/15 00:37:46.91,-138,2878,-15981,-3215,-468,-1409,260,384,-124,-322
,926,2018/03/15 00:37:46.93,-95,3063,-16084,-3967,-512,-1768,229,338,-109,-283
,927,2018/03/15 00:37:46.95,-153,3293,-16171,-4842,-661,-2220,-118,-22,-96,70
,928,2018/03/15 00:37:46.97,-193,3599,-16184,-5839,-943,-2698,456,569,-113,-512
,929,2018/03/15 00:37:46.99,-296,3995,-16105,-6755,-1254,-3178,640,758,-118,-699
,930,2018/03/15 00:37:47.01,-382,4265,-16032,-7408,-1528,-3620,85,184,-99,-134
,931,2018/03/15 00:37:47.03,-535,4545,-15841,-7550,-1719,-3937,-59,50,-109,4
,932,2018/03/15 00:37:47.05,-759,4894,-15661,-7290,-1777,-4116,-99,5,-104,47
,933,2018/03/15 00:37:47.07,-844,5247,-15462,-6699,-1695,-4108,-458,-368,-90,413
,934,2018/03/15 00:37:47.09,-1107,5488,-15343,-6056,-1522,-3979,-352,-250,-102,301
,935,2018/03/15 00:37:47.11,-1241,5745,-15274,-5482,-1365,-3700,-40,66,-106,-13
,936,2018/03/15 00:37:47.13,-1432,5944,-15098,-5021,-1216,-3340,-320,-214,-106,267
,937,2018/03/15 00:37:47.15,-1373,5999,-14966,-4627,-1052,-2957,-136,-30,-106,83
,938,2018/03/15 00:37:47.17,-1548,6053,-14821,-4301,-861,-2573,-347,-244,-103,295
,939,2018/03/15 00:37:47.19,-1563,6142,-14806,-4088,-681,-2194,208,334,-126,-271
,940,2018/03/15 00:37:47.21,-1597,6462,-14713,-3816,-526,-1716,-125,-8,-117,66
,941,2018/03/15 00:37:47.23,-1661,6793,-14684,-3694,-495,-1492,-337,-229,-108,283
,942,2018/03/15 00:37:47.25,-1744,7007,-14673,-3542,-481,-1328,-152,-32,-120,92
,943,2018/03/15 00:37:47.27,-1737,7131,-14575,-3393,-516,-1233,-213,-93,-120,153
,944,2018/03/15 00:37:47.29,-1771,7194,-14512,-3282,-533,-1167,-467,-350,-117,408
,945,2018/03/15 00:37:47.31,-1730,7193,-14413,-3276,-561,-1098,125,264,-139,-194
,946,2018/03/15 00:37:47.33,-1842,7316,-14365,-3349,-558,-1035,508,635,-127,-571
,947,2018/03/15 00:37:47.35,-1930,7623,-14352,-3610,-611,-953,-200,-85,-115,142
,948,2018/03/15 00:37:47.37,-2024,7819,-14191,-3710,-694,-825,-439,-314,-125,376
,949,2018/03/15 00:37:47.39,-2037,7932,-14021,-3600,-686,-689,141,289,-148,-215
,950,2018/03/15 00:37:47.41,-2016,8136,-13890,-3243,-586,-566,290,437,-147,-363
,951,2018/03/15 00:37:47.43,-2140,8468,-13935,-2830,-451,-500,128,265,-137,-196
,952,2018/03/15 00:37:47.45,-2156,8679,-13951,-2389,-372,-443,-379,-248,-131,313
,953,2018/03/15 00:37:47.47,-2223,8792,-13945,-1977,-316,-363,120,266,-146,-193
,954,2018/03/15 00:37:47.49,-2222,8802,-13856,-1563,-271,-271,-272,-140,-132,206
,955,2018/03/15 00:37:47.51,-2187,8778,-13804,-1212,-214,-182,-640,-512,-128,576
,956,2018/03/15 00:37:47.53,-2219,8744,-13809,-912,-154,-105,-624,-490,-134,557
,957,2018/03/15 00:37:47.55,-2125,8732,-13844,-700,-97,-53,-558,-419,-139,488
,958,2018/03/15 00:37:47.57,-2159,8766,-13818,-500,-86,-43,-503,-372,-131,437
,959,2018/03/15 00:37:47.59,-2154,8712,-13837,-378,-101,-47,151,295,-144,-223
,960,2018/03/15 00:37:47.61,-2212,8685,-13822,-293,-143,-49,1797,1753,44,-1775
,961,2018/03/15 00:37:47.63,-2214,8644,-13728,-179,-156,-40,851,1118,-267,-984
,962,2018/03/15 00:37:47.65,-2167,8597,-13815,-165,-104,-37,-8,133,-141,-62
,963,2018/03/15 00:37:47.67,-2065,8560,-13807,-106,-92,-27,-133,-11,-122,72
,964,2018/03/15 00:37:47.69,-2188,8542,-13770,-112,-129,-34,178,316,-138,-247
,965,2018/03/15 00:37:47.71,-2175,8448,-13828,-150,-181,-8,345,493,-148,-419
,966,2018/03/15 00:37:47.73,-2204,8447,-13651,-168,-179,42,-20,107,-127,-43
,967,2018/03/15 00:37:47.75,-2137,8496,-13653,-277,-68,51,-304,-176,-128,240
,968,2018/03/15 00:37:47.77,-2195,8601,-13727,-423,-59,11,243,394,-151,-318
,969,2018/03/15 00:37:47.79,-2157,8655,-13763,-555,-110,-41,128,261,-133,-194
,970,2018/03/15 00:37:47.81,-2136,8731,-13733,-641,-161,-126,169,312,-143,-240
,971,2018/03/15 00:37:47.83,-2181,8623,-13669,-698,-186,-197,307,458,-151,-382
,972,2018/03/15 00:37:47.85,-2177,8511,-13633,-686,-205,-209,461,618,-157,-539
,973,2018/03/15 00:37:47.87,-2184,8626,-13704,-690,-207,-194,-270,-136,-134,203
,974,2018/03/15 00:37:47.89,-2217,8559,-13687,-699,-257,-139,-530,-399,-131,464
,975,2018/03/15 00:37:47.91,-2179,8691,-13636,-720,-278,-90,-664,-537,-127,600
,976,2018/03/15 00:37:47.93,-2244,8749,-13726,-791,-306,-41,-19,134,-153,-57
,977,2018/03/15 00:37:47.95,-2272,8749,-13617,-836,-348,-5,-388,-268,-120,328
,978,2018/03/15 00:37:47.97,-2223,8722,-13585,-886,-326,-6,-442,-312,-130,377
,979,2018/03/15 00:37:47.99,-2243,8721,-13540,-881,-298,-25,-446,-323,-123,384
,980,2018/03/15 00:37:48.01,-2289,8768,-13587,-933,-288,-64,-354,-218,-136,286
,981,2018/03/15 00:37:48.03,-2265,8850,-13534,-1006,-312,-94,790,956,-166,-873
,982,2018/03/15 00:37:48.05,-2247,8840,-13495,-1100,-325,-148,77,200,-123,-138
,983,2018/03/15 00:37:48.07,-2285,9065,-13457,-1125,-339,-173,-586,-465,-121,525
,984,2018/03/15 00:37:48.09,-2375,9136,-13472,-1112,-329,-193,-56,102,-158,-23
,985,2018/03/15 00:37:48.11,-2452,9164,-13442,-1043,-328,-180,648,795,-147,-721
,986,2018/03/15 00:37:48.13,-2434,9301,-13353,-951,-294,-160,145,275,-130,-210
,987,2018/03/15 00:37:48.15,-2479,9355,-13347,-789,-224,-111,-112,20,-132,46
,988,2018/03/15 00:37:48.17,-2533,9344,-13312,-638,-193,-56,-598,-470,-128,534
,989,2018/03/15 00:37:48.19,-2450,9354,-13271,-499,-159,-1,186,353,-167,-269
,990,2018/03/15 00:37:48.21,-2424,9427,-13266,-325,-126,58,396,543,-147,-469
,991,2018/03/15 00:37:48.23,-2438,9435,-13191,-179,-117,103,-211,-82,-129,146
,992,2018/03/15 00:37:48.25,-2444,9434,-13174,-109,-94,126,140,271,-131,-205
,993,2018/03/15 00:37:48.27,-2437,9380,-13169,-60,-85,122,-453,-341,-112,397
,994,2018/03/15 00:37:48.29,-2564,9410,-13148,-28,-63,132,-446,-322,-124,384
,995,2018/03/15 00:37:48.31,-2460,9419,-13110,26,-44,136,228,356,-128,-292
,996,2018/03/15 00:37:48.33,-2417,9482,-13094,99,-20,128,-478,-368,-110,423
,997,2018/03/15 00:37:48.35,-2450,9444,-13111,158,26,83,-672,-555,-117,613
,998,2018/03/15 00:37:48.37,-2463,9409,-13104,184,55,56,-613,-496,-117,554
,999,2018/03/15 00:37:48.39,-2393,9355,-13177,201,73,26,-364,-239,-125,301
,1000,2018/03/15 00:37:48.41,-2343,9288,-13201,212,55,-2,1336,1516,-180,-1426
,1001,2018/03/15 00:37:48.43,-2455,9309,-13216,248,23,-10,922,1066,-144,-994
,1002,2018/03/15 00:37:48.45,-2397,9317,-13196,252,19,-7,205,344,-139,-274
,1003,2018/03/15 00:37:48.47,-2424,9287,-13207,222,38,19,600,747,-147,-673
,1004,2018/03/15 00:37:48.49,-2455,9258,-13287,182,43,28,586,719,-133,-652
,1005,2018/03/15 00:37:48.51,-2400,9272,-13319,280,42,20,79,205,-126,-142
,1006,2018/03/15 00:37:48.53,-2341,9255,-13256,376,36,56,176,315,-139,-245
,1007,2018/03/15 00:37:48.55,-2326,9217,-13218,399,161,35,-116,10,-126,53
,1008,2018/03/15 00:37:48.57,-2455,9240,-13271,401,247,40,-670,-562,-108,616
,1009,2018/03/15 00:37:48.59,-2321,9221,-13347,366,256,12,-826,-721,-105,773
,1010,2018/03/15 00:37:48.61,-2301,9208,-13325,359,185,-27,-781,-675,-106,728
,1011,2018/03/15 00:37:48.63,-2334,9215,-13368,332,176,-86,-722,-610,-112,666
,1012,2018/03/15 00:37:48.65,-2291,9132,-13384,322,152,-116,-664,-548,-116,606
,1013,2018/03/15 00:37:48.67,-2322,8967,-13381,368,160,-106,-605,-496,-109,550
,1014,2018/03/15 00:37:48.69,-2340,8977,-13396,389,162,-62,-547,-430,-117,488
,1015,2018/03/15 00:37:48.71,-2356,8945,-13412,353,172,0,-102,37,-139,32
,1016,2018/03/15 00:37:48.73,-2305,9031,-13407,298,172,49,666,801,-135,-733
,1017,2018/03/15 00:37:48.75,-2201,8971,-13443,292,166,60,965,1116,-151,-1040
,1018,2018/03/15 00:37:48.77,-2233,8995,-13456,319,192,11,788,918,-130,-853
,1019,2018/03/15 00:37:48.79,-2131,8984,-13515,394,225,-60,-266,-157,-109,211
,1020,2018/03/15 00:37:48.81,-2047,8919,-13562,360,269,-144,577,731,-154,-654
,1021,2018/03/15 00:37:48.83,-2180,8818,-13658,277,179,-183,498,625,-127,-561
,1022,2018/03/15 00:37:48.85,-2100,8804,-13627,66,9,-156,199,320,-121,-259
,1023,2018/03/15 00:37:48.87,-2135,8701,-13697,-165,-211,-36,104,225,-121,-164
,1024,2018/03/15 00:37:48.89,-2287,8696,-13597,-235,-462,308,115,252,-137,-183
,1025,2018/03/15 00:37:48.91,-2387,8716,-13543,-140,-480,543,143,277,-134,-210
,1026,2018/03/15 00:37:48.93,-2368,8816,-13643,-9,-391,647,258,399,-141,-328
,1027,2018/03/15 00:37:48.95,-2268,8996,-13663,28,-255,577,-375,-252,-123,313
,1028,2018/03/15 00:37:48.97,-2219,9105,-13599,17,-130,336,-405,-276,-129,340
,1029,2018/03/15 00:37:48.99,-2031,9314,-13316,-95,95,-50,213,371,-158,-292
,1030,2018/03/15 00:37:49.01,-1993,9248,-13352,-339,407,-462,79,212,-133,-145
,1031,2018/03/15 00:37:49.03,-1774,9203,-13408,-547,514,-749,-643,-533,-110,588
,1032,2018/03/15 00:37:49.05,-1892,9227,-13286,-635,372,-834,-745,-634,-111,689
,1033,2018/03/15 00:37:49.07,-1989,9392,-13184,-607,101,-837,-687,-564,-123,625
,1034,2018/03/15 00:37:49.09,-2010,9512,-13270,-563,-124,-774,-640,-509,-131,574
,1035,2018/03/15 00:37:49.11,-1944,9423,-13276,-334,-266,-617,-506,-371,-135,438
,1036,2018/03/15 00:37:49.13,-1963,9351,-13312,6,-318,-447,-7,135,-142,-64
,1037,2018/03/15 00:37:49.15,-2080,9265,-13446,312,-466,-210,-219,-90,-129,154
,1038,2018/03/15 00:37:49.17,-2171,9095,-13436,603,-741,93,192,339,-147,-265
,1039,2018/03/15 00:37:49.19,-2371,8972,-13524,751,-1106,449,-23,112,-135,-44
,1040,2018/03/15 00:37:49.21,-2661,8852,-13455,920,-1570,874,-398,-268,-130,333
,1041,2018/03/15 00:37:49.23,-2996,8822,-13172,994,-1944,1284,-95,38,-133,28
,1042,2018/03/15 00:37:49.25,-3178,8915,-12996,992,-2122,1636,-75,62,-137,6
,1043,2018/03/15 00:37:49.27,-3385,9083,-12764,874,-1953,1803,361,513,-152,-437
,1044,2018/03/15 00:37:49.29,-3571,9308,-12765,972,-1597,1860,907,1073,-166,-990
,1045,2018/03/15 00:37:49.31,-3572,9482,-12828,1200,-1060,1816,306,438,-132,-372
,1046,2018/03/15 00:37:49.33,-3636,9530,-12974,1432,-498,1693,-495,-373,-122,434
,1047,2018/03/15 00:37:49.35,-3594,9474,-13146,1741,144,1487,-556,-434,-122,495
,1048,2018/03/15 00:37:49.37,-3303,9511,-13140,2213,700,1238,-526,-411,-115,468
,1049,2018/03/15 00:37:49.39,-3036,9758,-13236,2587,1385,897,-534,-418,-116,476
,1050,2018/03/15 00:37:49.41,-2775,9929,-13518,3152,1864,579,-516,-407,-109,461
,1051,2018/03/15 00:37:49.43,-2515,9927,-13657,3697,2222,298,602,726,-124,-664
,1052,2018/03/15 00:37:49.45,-2425,9684,-13907,4177,2493,87,1704,1729,-25,-1716
,1053,2018/03/15 00:37:49.47,-2426,9151,-14095,4857,2458,110,1063,1266,-203,-1164
,1054,2018/03/15 00:37:49.49,-2348,8863,-13928,5616,2275,295,736,887,-151,-811
,1055,2018/03/15 00:37:49.51,-2311,8675,-13978,6209,2424,556,19,127,-108,-73
,1056,2018/03/15 00:37:49.53,-2239,8351,-14008,6774,2647,831,90,225,-135,-157
,1057,2018/03/15 00:37:49.55,-1982,8081,-14331,7357,2968,1077,675,808,-133,-741
,1058,2018/03/15 00:37:49.57,-1794,7752,-14463,8122,3206,1337,-417,-322,-95,369
,1059,2018/03/15 00:37:49.59,-1547,7335,-14525,8953,3388,1563,-360,-245,-115,302
,1060,2018/03/15 00:37:49.61,-1228,7054,-14539,9499,3614,1698,379,501,-122,-440
,1061,2018/03/15 00:37:49.63,-1052,6926,-14592,9936,3985,1742,122,222,-100,-172
,1062,2018/03/15 00:37:49.65,-763,6526,-14539,10432,4386,1649,-126,-30,-96,78
,1063,2018/03/15 00:37:49.67,-530,5878,-14554,10560,4621,1525,-359,-260,-99,309
,1064,2018/03/15 00:37:49.69,-311,5040,-14486,10589,4661,1481,-442,-342,-100,392
,1065,2018/03/15 00:37:49.71,-17,4644,-14882,10792,4605,1444,-543,-455,-88,499
,1066,2018/03/15 00:37:49.73,240,4326,-15066,10529,4363,1378,-610,-531,-79,570
,1067,2018/03/15 00:37:49.75,478,3822,-15106,10028,4126,1259,-589,-502,-87,545
,1068,2018/03/15 00:37:49.77,772,2981,-15328,9173,3859,1084,-526,-442,-84,484
,1069,2018/03/15 00:37:49.79,1030,2225,-15790,8266,3277,998,-395,-299,-96,347
,1070,2018/03/15 00:37:49.81,1114,1619,-15722,7414,2468,957,-73,20,-93,26
,1071,2018/03/15 00:37:49.83,1211,1176,-15847,6490,1793,875,293,404,-111,-348
,1072,2018/03/15 00:37:49.85,1272,892,-16136,5588,1103,770,166,271,-105,-218
,1073,2018/03/15 00:37:49.87,1272,715,-15912,4522,358,648,-51,52,-103,0
,1074,2018/03/15 00:37:49.89,1223,561,-15728,3416,-253,584,-27,97,-124,-35
,1075,2018/03/15 00:37:49.91,1174,434,-15372,2424,-629,469,-202,-79,-123,140
,1076,2018/03/15 00:37:49.93,1154,317,-15456,1489,-708,385,-326,-217,-109,271
,1077,2018/03/15 00:37:49.95,1096,70,-15734,746,-779,406,-229,-126,-103,177
,1078,2018/03/15 00:37:49.97,1015,-161,-15669,286,-997,533,1028,1173,-145,-1100
,1079,2018/03/15 00:37:49.99,989,-140,-16082,-116,-1174,726,127,224,-97,-175
,1080,2018/03/15 00:37:50.01,908,-77,-16261,-555,-1406,900,-165,-50,-115,107
,1081,2018/03/15 00:37:50.03,754,112,-16693,-1098,-1640,1006,872,1017,-145,-944
,1082,2018/03/15 00:37:50.05,664,23,-17167,-1712,-1841,1152,331,431,-100,-381
,1083,2018/03/15 00:37:50.07,471,231,-17218,-2017,-2137,1322,34,139,-105,-86
,1084,2018/03/15 00:37:50.09,466,402,-16818,-2238,-2177,1371,-177,-76,-101,126
,1085,2018/03/15 00:37:50.11,480,663,-16131,-2057,-1841,1327,-524,-428,-96,476
,1086,2018/03/15 00:37:50.13,495,770,-16296,-1829,-1183,1204,-352,-251,-101,301
,1087,2018/03/15 00:37:50.15,402,773,-16765,-1437,-562,1021,-503,-407,-96,455
,1088,2018/03/15 00:37:50.17,257,690,-17382,-878,-241,908,-542,-450,-92,496
,1089,2018/03/15 00:37:50.19,256,562,-17599,-95,-159,881,-444,-368,-76,406
,1090,2018/03/15 00:37:50.21,137,499,-17615,664,-117,865,-428,-355,-73,391
,1091,2018/03/15 00:37:50.23,180,594,-17366,1395,70,808,-392,-314,-78,353
,1092,2018/03/15 00:37:50.25,206,627,-17262,1898,452,570,-345,-243,-102,294
,1093,2018/03/15 00:37:50.27,222,460,-17152,2112,908,251,75,184,-109,-129
,1094,2018/03/15 00:37:50.29,379,421,-16683,2349,1312,-51,262,360,-98,-311
,1095,2018/03/15 00:37:50.31,595,387,-16110,2456,2085,-473,503,613,-110,-558
,1096,2018/03/15 00:37:50.33,1023,418,-16099,2518,2958,-899,810,940,-130,-875
,1097,2018/03/15 00:37:50.35,1210,388,-16311,2660,3545,-1396,611,742,-131,-676
,1098,2018/03/15 00:37:50.37,1499,376,-16662,2762,3856,-1863,344,462,-118,-403
,1099,2018/03/15 00:37:50.39,1770,62,-17022,2876,3793,-2253,-166,-51,-115,108
,1100,2018/03/15 00:37:50.41,2107,-128,-16920,3057,3682,-2511,508,621,-113,-564
,1101,2018/03/15 00:37:50.43,2258,-338,-16884,3285,3616,-2685,570,656,-86,-613
,1102,2018/03/15 00:37:50.45,2336,-613,-17168,3363,3368,-2688,86,160,-74,-123
,1103,2018/03/15 00:37:50.47,2338,-914,-17370,3335,2803,-2519,-195,-121,-74,158
,1104,2018/03/15 00:37:50.49,2288,-1119,-17802,3124,2096,-2218,-160,-95,-65,127
,1105,2018/03/15 00:37:50.51,2154,-1417,-17229,2946,1344,-1841,131,192,-61,-161
,1106,2018/03/15 00:37:50.53,2017,-1504,-17050,2785,775,-1381,129,182,-53,-155
,1107,2018/03/15 00:37:50.55,2017,-1460,-16622,2540,355,-930,-162,-103,-59,132
,1108,2018/03/15 00:37:50.57,1971,-1446,-15887,2225,80,-496,-330,-267,-63,298
,1109,2018/03/15 00:37:50.59,1862,-1159,-16038,1018,-70,-74,-485,-423,-62,454
,1110,2018/03/15 00:37:50.61,1676,-1062,-16308,-95,-323,117,-508,-455,-53,481
,1111,2018/03/15 00:37:50.63,1642,-1050,-16112,-1144,-713,304,-438,-413,-25,425
,1112,2018/03/15 00:37:50.65,1523,-931,-15726,-1849,-954,441,-382,-412,30,397
,1113,2018/03/15 00:37:50.67,1452,-828,-15261,-2359,-956,533,-324,-419,95,371
,1114,2018/03/15 00:37:50.69,1445,-585,-15006,-2682,-860,564,-264,-398,134,331
,1115,2018/03/15 00:37:50.71,1508,-276,-15066,-3177,-651,455,-228,-387,159,307
,1116,2018/03/15 00:37:50.73,1600,-5,-15177,-3839,-539,252,-199,-376,177,287
,1117,2018/03/15 00:37:50.75,1646,503,-15477,-4843,-507,-145,-172,-343,171,257
,1118,2018/03/15 00:37:50.77,1515,1042,-15921,-6307,-674,-654,-166,-323,157,244
,1119,2018/03/15 00:37:50.79,1215,1952,-16295,-8063,-1238,-1182,-169,-305,136,237
,1120,2018/03/15 00:37:50.81,965,2926,-16447,-9383,-2034,-1582,-172,-274,102,223
,1121,2018/03/15 00:37:50.83,929,3682,-16367,-9438,-2634,-1808,-189,-264,75,226
,1122,2018/03/15 00:37:50.85,822,4544,-16042,-8161,-2753,-1957,-229,-290,61,259
,1123,2018/03/15 00:37:50.87,721,5167,-15801,-6962,-2358,-2192,-235,-303,68,269
,1124,2018/03/15 00:37:50.89,650,5433,-15923,-6369,-1840,-2424,-114,-178,64,146
,1125,2018/03/15 00:37:50.91,468,5394,-16267,-6114,-1563,-2510,932,895,37,-913
,1126,2018/03/15 00:37:50.93,214,4948,-16339,-5831,-1665,-2335,600,568,32,-584
,1127,2018/03/15 00:37:50.95,89,4849,-16377,-4371,-1931,-1852,937,922,15,-929
,1128,2018/03/15 00:37:50.97,2,5095,-16284,-2502,-2057,-1347,982,984,-2,-983
,1129,2018/03/15 00:37:50.99,-106,4959,-15841,-916,-1840,-966,261,260,1,-260
,1130,2018/03/15 00:37:51.01,-87,4672,-15718,151,-1401,-685,-198,-197,-1,197
,1131,2018/03/15 00:37:51.03,-142,4178,-15691,782,-979,-494,-396,-378,-18,387
,1132,2018/03/15 00:37:51.05,-78,3676,-15777,1113,-616,-314,-373,-342,-31,357
,1133,2018/03/15 00:37:51.07,85,3424,-15913,1248,-326,-135,-336,-299,-37,317
,1134,2018/03/15 00:37:51.09,90,3145,-15976,1220,-65,-7,-317,-265,-52,291
,1135,2018/03/15 00:37:51.11,188,3054,-16123,1220,128,134,-287,-231,-56,259
,1136,2018/03/15 00:37:51.13,198,2946,-16076,1165,296,207,-262,-205,-57,233
,1137,2018/03/15 00:37:51.15,215,2769,-16012,1055,395,308,-237,-165,-72,201
,1138,2018/03/15 00:37:51.17,403,2742,-15974,1011,448,418,-222,-137,-85,179
,1139,2018/03/15 00:37:51.19,468,2870,-15979,971,423,474,-194,-113,-81,153
,1140,2018/03/15 00:37:51.21,569,2976,-15981,837,440,438,-176,-86,-90,131
,1141,2018/03/15 00:37:51.23,575,2990,-15945,688,479,353,-147,-60,-87,103
,1142,2018/03/15 00:37:51.25,668,2942,-15996,615,540,272,-131,-47,-84,89
,1143,2018/03/15 00:37:51.27,660,3008,-16066,603,479,245,-128,-37,-91,82
,1144,2018/03/15 00:37:51.29,700,2881,-16213,503,377,270,-120,-22,-98,71
,1145,2018/03/15 00:37:51.31,597,2883,-16204,397,232,346,-103,-3,-100,53
,1146,2018/03/15 00:37:51.33,573,2926,-16127,299,96,445,-96,3,-99,46
,1147,2018/03/15 00:37:51.35,557,2811,-16060,256,26,580,-88,13,-101,37
,1148,2018/03/15 00:37:51.37,543,2817,-15997,244,-9,694,-87,21,-108,33
,1149,2018/03/15 00:37:51.39,489,2893,-15932,199,60,768,-86,27,-113,29
,1150,2018/03/15 00:37:51.41,534,2899,-15874,203,177,776,-78,25,-103,26
,1151,2018/03/15 00:37:51.43,558,2983,-15969,92,267,715,-74,35,-109,19
,1152,2018/03/15 00:37:51.45,413,2958,-16079,-47,341,655,-76,35,-111,20
,1153,2018/03/15 00:37:51.47,423,2932,-16167,-164,275,583,-77,36,-113,20
,1154,2018/03/15 00:37:51.49,518,3036,-16188,-258,264,523,-79,35,-114,22
,1155,2018/03/15 00:37:51.51,514,3017,-16193,-286,318,440,-63,57,-120,3
,1156,2018/03/15 00:37:51.53,486,3073,-16134,-224,362,370,-69,50,-119,9
,1157,2018/03/15 00:37:51.55,608,3209,-16021,-175,468,259,-64,50,-114,7
,1158,2018/03/15 00:37:51.57,753,3370,-15946,-152,676,94,-70,46,-116,12
,1159,2018/03/15 00:37:51.59,763,3357,-16107,-97,842,-124,-57,52,-109,2
,1160,2018/03/15 00:37:51.61,923,3316,-16296,-60,813,-266,-44,68,-112,-12
,1161,2018/03/15 00:37:51.63,903,3213,-16447,-59,674,-387,78,194,-116,-136
,1162,2018/03/15 00:37:51.65,882,3317,-16303,7,471,-481,-323,-186,-137,254
,1163,2018/03/15 00:37:51.67,1027,3385,-16341,-33,361,-555,-1434,-1392,-42,1413
,1164,2018/03/15 00:37:51.69,904,3389,-16338,347,109,-527,-1412,-1645,233,1528
,1165,2018/03/15 00:37:51.71,824,3063,-16112,705,-83,-357,-1711,-1828,117,1769
,1166,2018/03/15 00:37:51.73,822,3110,-16159,978,-195,-87,-812,-1891,1079,1351
,1167,2018/03/15 00:37:51.75,792,2803,-16087,1010,-84,217,-18,-1979,1961,998
,1168,2018/03/15 00:37:51.77,768,2807,-16124,1213,-215,480,368,-1994,2362,813
,1169,2018/03/15 00:37:51.79,633,2796,-15966,1273,-241,624,-146,-1525,1379,835
,1170,2018/03/15 00:37:51.81,725,2784,-15791,1315,-121,622,-1642,-1812,170,1727
,1171,2018/03/15 00:37:51.83,684,2926,-15878,1357,80,530,-2028,-2009,-19,2018
,1172,2018/03/15 00:37:51.85,642,2948,-15843,1353,191,347,-2040,-2033,-7,2036
,1173,2018/03/15 00:37:51.87,766,2990,-16002,1113,276,106,-2019,-2024,5,2021
,1174,2018/03/15 00:37:51.89,833,2855,-16096,786,66,-113,-2020,-2023,3,2021
,1175,2018/03/15 00:37:51.91,791,2668,-16067,407,-62,-177,-2023,-2024,1,2023
,1176,2018/03/15 00:37:51.93,889,2636,-16186,451,-72,-126,-1879,-1963,84,1921
,1177,2018/03/15 00:37:51.95,870,2687,-16127,652,-226,-67,-244,-908,664,576
,1178,2018/03/15 00:37:51.97,936,2738,-15999,734,-263,-81,1957,1795,162,-1876
,1179,2018/03/15 00:37:51.99,860,2595,-16143,790,-278,-69,1953,1797,156,-1875
,1180,2018/03/15 00:37:52.01,847,2501,-16240,759,-296,-42,1888,1712,176,-1800
,1181,2018/03/15 00:37:52.03,815,2479,-16239,650,-288,-21,1447,945,502,-1196
,1182,2018/03/15 00:37:52.05,806,2477,-16229,465,-244,-58,1286,739,547,-1012
,1183,2018/03/15 00:37:52.07,716,2428,-16362,327,-209,-82,361,-112,473,-124
,1184,2018/03/15 00:37:52.09,694,2440,-16358,214,-187,-90,1062,963,99,-1012
,1185,2018/03/15 00:37:52.11,690,2369,-16243,137,-117,-118,1912,1785,127,-1848
,1186,2018/03/15 00:37:52.13,610,2292,-16245,103,-101,-123,1937,1795,142,-1866
,1187,2018/03/15 00:37:52.15,582,2254,-16386,93,-146,-95,1947,1799,148,-1873
,1188,2018/03/15 00:37:52.17,496,2244,-16249,45,-206,-91,1948,1799,149,-1873
,1189,2018/03/15 00:37:52.19,590,2224,-16210,28,-233,-25,1953,1800,153,-1876
,1190,2018/03/15 00:37:52.21,531,2127,-16196,21,-211,-10,1920,1789,131,-1854
,1191,2018/03/15 00:37:52.23,533,2171,-16155,53,-210,36,1920,1766,154,-1843
,1192,2018/03/15 00:37:52.25,575,2172,-15966,4,-99,24,1928,1683,245,-1805
,1193,2018/03/15 00:37:52.27,682,2405,-16075,-164,267,-16,1892,1509,383,-1700
,1194,2018/03/15 00:37:52.29,658,2395,-16195,-274,356,-65,1756,1439,317,-1597
,1195,2018/03/15 00:37:52.31,634,2454,-16263,-341,256,-89,1623,1497,126,-1560
,1196,2018/03/15 00:37:52.33,820,2418,-16197,-432,164,-137,1471,1462,9,-1466
,1197,2018/03/15 00:37:52.35,677,2456,-16234,-480,100,-134,1090,1219,-129,-1154
,1198,2018/03/15 00:37:52.37,770,2565,-16195,-576,118,-115,893,1127,-234,-1010
,1199,2018/03/15 00:37:52.39,797,2621,-16222,-687,135,-111,847,1152,-305,-999
,1200,2018/03/15 00:37:52.41,827,2679,-16170,-853,145,-106,787,1131,-344,-959
,1201,2018/03/15 00:37:52.43,864,2682,-16250,-1005,143,-98,661,1045,-384,-853
,1202,2018/03/15 00:37:52.45,890,2774,-16332,-1112,43,-90,524,925,-401,-724
,1203,2018/03/15 00:37:52.47,847,2761,-16259,-1202,-32,-79,403,809,-406,-606
,1204,2018/03/15 00:37:52.49,916,2736,-16186,-1289,-112,-50,285,695,-410,-490
,1205,2018/03/15 00:37:52.51,958,2723,-16238,-1368,-203,-29,252,636,-384,-444
,1206,2018/03/15 00:37:52.53,833,2794,-16215,-1445,-292,-3,-96,244,-340,-74
,1207,2018/03/15 00:37:52.55,906,2875,-16189,-1456,-385,36,-425,-80,-345,252
,1208,2018/03/15 00:37:52.57,822,2903,-16197,-1431,-455,102,-280,91,-371,94
,1209,2018/03/15 00:37:52.59,766,2958,-16165,-1304,-522,162,-161,203,-364,-21
,1210,2018/03/15 00:37:52.61,699,3018,-16160,-1072,-572,253,-559,-242,-317,400
,1211,2018/03/15 00:37:52.63,704,3022,-16088,-814,-623,328,-873,-552,-321,712
,1212,2018/03/15 00:37:52.65,663,2987,-16017,-527,-630,403,-492,-103,-389,297
,1213,2018/03/15 00:37:52.67,616,2993,-15949,-255,-521,476,-109,238,-347,-64
,1214,2018/03/15 00:37:52.69,563,3078,-15933,-91,-369,537,32,336,-304,-184
,1215,2018/03/15 00:37:52.71,515,3117,-16014,-38,-258,556,121,420,-299,-270
,1216,2018/03/15 00:37:52.73,513,3106,-16077,-51,-208,527,164,451,-287,-307
,1217,2018/03/15 00:37:52.75,489,3157,-16036,-115,-181,433,218,510,-292,-364
,1218,2018/03/15 00:37:52.77,514,3319,-16037,-162,-177,274,260,570,-310,-415
,1219,2018/03/15 00:37:52.79,430,3361,-16015,-200,-181,49,310,625,-315,-467
,1220,2018/03/15 00:37:52.81,474,3420,-15986,-233,-163,-196,256,564,-308,-410
,1221,2018/03/15 00:37:52.83,449,3387,-16078,-142,-133,-423,26,309,-283,-167
,1222,2018/03/15 00:37:52.85,454,3565,-16058,187,-126,-617,-360,-97,-263,228
,1223,2018/03/15 00:37:52.87,388,3648,-16124,457,-130,-834,-574,-305,-269,439
,1224,2018/03/15 00:37:52.89,376,3594,-16217,632,-166,-1054,-598,-320,-278,459
,1225,2018/03/15 00:37:52.91,338,3438,-16081,785,-246,-1180,-233,65,-298,84
,1226,2018/03/15 00:37:52.93,284,3447,-15892,783,-164,-1308,53,321,-268,-187
,1227,2018/03/15 00:37:52.95,332,3401,-15848,727,22,-1382,163,424,-261,-293
,1228,2018/03/15 00:37:52.97,263,3218,-15954,661,173,-1411,268,505,-237,-386
,1229,2018/03/15 00:37:52.99,239,3115,-16088,612,212,-1350,277,490,-213,-383
,1230,2018/03/15 00:37:53.01,273,2989,-16123,544,163,-1208,258,461,-203,-359
,1231,2018/03/15 00:37:53.03,211,2908,-16173,452,113,-999,273,462,-189,-367
,1232,2018/03/15 00:37:53.05,239,2819,-16182,404,65,-740,291,460,-169,-375
,1233,2018/03/15 00:37:53.07,266,2813,-16144,361,29,-433,274,441,-167,-357
,1234,2018/03/15 00:37:53.09,249,2742,-16116,301,16,-134,277,426,-149,-351
,1235,2018/03/15 00:37:53.11,322,2814,-16162,343,26,188,281,434,-153,-357
,1236,2018/03/15 00:37:53.13,359,2841,-16137,396,22,425,230,379,-149,-304
,1237,2018/03/15 00:37:53.15,349,2918,-16260,436,15,573,230,379,-149,-304
,1238,2018/03/15 00:37:53.17,398,2998,-16219,510,-55,639,238,383,-145,-310
,1239,2018/03/15 00:37:53.19,411,2929,-16193,605,-113,678,220,370,-150,-295
,1240,2018/03/15 00:37:53.21,371,2914,-16173,734,-158,688,195,345,-150,-270
,1241,2018/03/15 00:37:53.23,354,2971,-16169,796,-145,711,184,327,-143,-255
,1242,2018/03/15 00:37:53.25,468,2840,-16138,831,-141,682,172,296,-124,-234
,1243,2018/03/15 00:37:53.27,403,2898,-16103,761,-77,627,150,268,-118,-209
,1244,2018/03/15 00:37:53.29,423,2842,-16146,677,-49,546,124,250,-126,-187
,1245,2018/03/15 00:37:53.31,492,2787,-16083,487,-24,457,119,249,-130,-184
,1246,2018/03/15 00:37:53.33,486,2698,-16115,299,11,374,89,218,-129,-153
,1247,2018/03/15 00:37:53.35,514,2749,-16144,90,-6,325,-102,14,-116,44
,1248,2018/03/15 00:37:53.37,409,2700,-16124,-14,7,292,-628,-516,-112,572
,1249,2018/03/15 00:37:53.39,478,2701,-16079,-129,80,245,-770,-662,-108,716
,1250,2018/03/15 00:37:53.41,429,2761,-16136,-204,145,207,-1322,-1263,-59,1292
,1251,2018/03/15 00:37:53.43,426,2743,-16118,-141,206,186,-1670,-1610,-60,1640
,1252,2018/03/15 00:37:53.45,443,2847,-16114,-168,229,133,-1451,-1374,-77,1412
,1253,2018/03/15 00:37:53.47,484,2860,-16129,-137,245,101,-724,-615,-109,669
,1254,2018/03/15 00:37:53.49,491,2897,-16152,-109,226,49,-136,-1,-135,68
,1255,2018/03/15 00:37:53.51,461,2893,-16193,-103,196,-11,27,164,-137,-95
,1256,2018/03/15 00:37:53.53,497,2840,-16121,-35,116,-61,73,250,-177,-161
,1257,2018/03/15 00:37:53.55,460,2886,-16229,-30,88,-118,133,342,-209,-237
,1258,2018/03/15 00:37:53.57,504,2830,-16207,0,14,-150,196,419,-223,-307
,1259,2018/03/15 00:37:53.59,462,2670,-16252,2,-29,-128,226,434,-208,-330
,1260,2018/03/15 00:37:53.61,377,2624,-16055,64,-44,-62,281,474,-193,-377
,1261,2018/03/15 00:37:53.63,449,2721,-16028,13,87,-41,337,479,-142,-408
,1262,2018/03/15 00:37:53.65,504,2781,-16093,-22,181,-62,350,454,-104,-402
,1263,2018/03/15 00:37:53.67,468,2737,-16217,-46,205,-89,363,432,-69,-397
,1264,2018/03/15 00:37:53.69,462,2790,-16234,-35,166,-99,350,400,-50,-375
,1265,2018/03/15 00:37:53.71,452,2755,-16175,0,72,-119,325,381,-56,-353
,1266,2018/03/15 00:37:53.73,519,2747,-16115,-15,47,-133,311,359,-48,-335
,1267,2018/03/15 00:37:53.75,422,2759,-16065,-45,64,-150,283,319,-36,-301
,1268,2018/03/15 00:37:53.77,516,2761,-16108,-52,81,-158,248,294,-46,-271
,1269,2018/03/15 00:37:53.79,424,2808,-16123,-89,78,-182,228,271,-43,-249
,1270,2018/03/15 00:37:53.81,442,2851,-16165,-116,73,-222,208,248,-40,-228
,1271,2018/03/15 00:37:53.83,469,2843,-16208,-130,79,-228,166,218,-52,-192
,1272,2018/03/15 00:37:53.85,443,2764,-16114,-118,93,-216,160,202,-42,-181
,1273,2018/03/15 00:37:53.87,499,2782,-16117,-67,130,-207,156,192,-36,-174
,1274,2018/03/15 00:37:53.89,442,2778,-16172,-50,182,-187,133,171,-38,-152
,1275,2018/03/15 00:37:53.91,469,2822,-16173,-66,235,-192,117,155,-38,-136
,1276,2018/03/15 00:37:53.93,590,2891,-16190,-59,216,-203,101,139,-38,-120
,1277,2018/03/15 00:37:53.95,560,2856,-16183,-22,198,-242,75,111,-36,-93
,1278,2018/03/15 00:37:53.97,589,2885,-16190,-26,156,-254,95,126,-31,-110
,1279,2018/03/15 00:37:53.99,571,2851,-16222,-4,96,-213,88,116,-28,-102
,1280,2018/03/15 00:37:54.01,556,2808,-16192,32,57,-147,102,137,-35,-119
,1281,2018/03/15 00:37:54.03,587,2803,-16125,63,-2,-70,93,128,-35,-110
,1282,2018/03/15 00:37:54.05,614,2806,-16139,80,11,14,81,113,-32,-97
,1283,2018/03/15 00:37:54.07,581,2791,-16142,97,3,97,81,95,-14,-88
,1284,2018/03/15 00:37:54.09,596,2849,-16140,116,-20,108,80,82,-2,-81
,1285,2018/03/15 00:37:54.11,531,2897,-16149,117,-40,90,64,69,-5,-66
,1286,2018/03/15 00:37:54.13,597,2913,-16092,128,-42,85,78,79,-1,-78
,1287,2018/03/15 00:37:54.15,583,2910,-16109,123,-30,35,84,86,-2,-85
,1288,2018/03/15 00:37:54.17,490,2890,-16109,149,-23,3,84,82,2,-83
,1289,2018/03/15 00:37:54.19,633,2845,-16153,131,-39,-30,83,80,3,-81
,1290,2018/03/15 00:37:54.21,599,2831,-16152,104,-32,-46,74,76,-2,-75
,1291,2018/03/15 00:37:54.23,574,2824,-16158,107,-66,-21,72,76,-4,-74
,1292,2018/03/15 00:37:54.25,528,2816,-16132,86,-99,-3,59,74,-15,-66
,1293,2018/03/15 00:37:54.27,525,2848,-16179,79,-74,23,42,60,-18,-51
,1294,2018/03/15 00:37:54.29,468,2821,-16158,112,-113,73,41,64,-23,-52
,1295,2018/03/15 00:37:54.31,478,2723,-16180,163,-131,120,29,59,-30,-44
,1296,2018/03/15 00:37:54.33,487,2814,-16054,236,-76,165,14,57,-43,-35
,1297,2018/03/15 00:37:54.35,480,2905,-16022,211,71,135,11,67,-56,-39
,1298,2018/03/15 00:37:54.37,582,2955,-16108,163,168,30,11,84,-73,-47
,1299,2018/03/15 00:37:54.39,600,2889,-16229,150,159,-86,16,90,-74,-53
,1300,2018/03/15 00:37:54.41,621,2838,-16196,166,47,-177,21,92,-71,-56
,1301,2018/03/15 00:37:54.43,514,2793,-16163,172,-2,-202,20,102,-82,-61
,1302,2018/03/15 00:37:54.45,511,2696,-16123,113,7,-196,16,103,-87,-59
,1303,2018/03/15 00:37:54.47,535,2662,-16182,53,-11,-116,16,103,-87,-59
,1304,2018/03/15 00:37:54.49,559,2623,-16177,23,-64,-65,1,103,-102,-52
,1305,2018/03/15 00:37:54.51,587,2698,-16150,14,-101,-9,4,109,-105,-56
,1306,2018/03/15 00:37:54.53,553,2774,-16151,-5,-98,-11,10,110,-100,-60
,1307,2018/03/15 00:37:54.55,544,2713,-16176,-37,-90,-6,1,114,-113,-57
,1308,2018/03/15 00:37:54.57,520,2749,-16156,-30,-74,-30,2,118,-116,-60
,1309,2018/03/15 00:37:54.59,604,2735,-16204,-1,-31,-50,11,132,-121,-71
,1310,2018/03/15 00:37:54.61,526,2716,-16156,5,-25,-104,7,142,-135,-74
,1311,2018/03/15 00:37:54.63,533,2759,-16166,25,2,-105,13,153,-140,-83
,1312,2018/03/15 00:37:54.65,602,2730,-16155,-2,9,-127,9,152,-143,-80
,1313,2018/03/15 00:37:54.67,474,2770,-16173,14,29,-97,3,146,-143,-74
,1314,2018/03/15 00:37:54.69,491,2783,-16163,-21,18,-75,2,156,-154,-79
,1315,2018/03/15 00:37:54.71,502,2773,-16170,-28,-12,-69,-3,161,-164,-79
,1316,2018/03/15 00:37:54.73,463,2812,-16177,-17,-6,-58,4,167,-163,-85
,1317,2018/03/15 00:37:54.75,542,2783,-16139,0,-38,-47,4,161,-157,-82
,1318,2018/03/15 00:37:54.77,517,2817,-16073,19,3,-56,1,158,-157,-79
,1319,2018/03/15 00:37:54.79,456,2772,-16175,27,13,-53,5,163,-158,-84
,1320,2018/03/15 00:37:54.81,482,2773,-16122,-7,29,-61,-9,144,-153,-67
,1321,2018/03/15 00:37:54.83,514,2797,-16154,-29,25,-93,-23,134,-157,-55
,1322,2018/03/15 00:37:54.85,490,2826,-16129,-32,16,-97,-28,128,-156,-50
,1323,2018/03/15 00:37:54.87,427,2861,-16096,-30,38,-144,-33,130,-163,-48
,1324,2018/03/15 00:37:54.89,567,2797,-16161,8,41,-145,-45,119,-164,-37
,1325,2018/03/15 00:37:54.91,465,2888,-16144,24,60,-134,-30,130,-160,-50
,1326,2018/03/15 00:37:54.93,541,2855,-16238,39,62,-118,-37,132,-169,-47
,1327,2018/03/15 00:37:54.95,530,2846,-16128,76,29,-92,-26,141,-167,-57
,1328,2018/03/15 00:37:54.97,493,2849,-16181,110,32,-93,-19,149,-168,-65
,1329,2018/03/15 00:37:54.99,529,2810,-16154,128,-8,-68,-11,158,-169,-73
,1330,2018/03/15 00:37:55.01,488,2828,-16176,144,-6,-47,-1,168,-169,-83
,1331,2018/03/15 00:37:55.03,488,2790,-16104,148,-30,-20,3,170,-167,-86
,1332,2018/03/15 00:37:55.05,576,2766,-16197,97,23,-20,-2,162,-164,-80
,1333,2018/03/15 00:37:55.07,467,2740,-16287,163,-15,0,1,163,-162,-82
,1334,2018/03/15 00:37:55.09,457,2692,-16129,236,-100,37,-1,164,-165,-81
,1335,2018/03/15 00:37:55.11,473,2779,-15998,219,-10,46,-12,146,-158,-67
,1336,2018/03/15 00:37:55.13,526,2847,-16085,131,120,-10,-24,137,-161,-56
,1337,2018/03/15 00:37:55.15,517,2807,-16117,41,152,-70,-39,131,-170,-46
,1338,2018/03/15 00:37:55.17,475,2789,-16239,46,84,-130,-21,150,-171,-64
,1339,2018/03/15 00:37:55.19,500,2742,-16112,96,33,-153,-1,164,-165,-81
,1340,2018/03/15 00:37:55.21,528,2731,-16120,109,56,-151,-4,162,-166,-79
,1341,2018/03/15 00:37:55.23,489,2720,-16157,152,78,-123,-6,157,-163,-75
,1342,2018/03/15 00:37:55.25,557,2652,-16163,158,81,-67,-15,150,-165,-67
,1343,2018/03/15 00:37:55.27,508,2658,-16180,163,58,-7,-11,161,-172,-75
,1344,2018/03/15 00:37:55.29,534,2714,-16152,152,74,15,-8,168,-176,-80
,1345,2018/03/15 00:37:55.31,563,2669,-16258,108,91,6,-17,152,-169,-67
,1346,2018/03/15 00:37:55.33,561,2690,-16225,169,46,-19,-18,152,-170,-67
,1347,2018/03/15 00:37:55.35,605,2615,-16178,181,16,-35,-37,145,-182,-54
,1348,2018/03/15 00:37:55.37,572,2619,-16152,182,72,-56,-36,151,-187,-57
,1349,2018/03/15 00:37:55.39,593,2613,-16200,130,132,-77,-16,170,-186,-77
,1350,2018/03/15 00:37:55.41,576,2634,-16191,128,105,-84,-6,180,-186,-87
,1351,2018/03/15 00:37:55.43,547,2600,-16236,85,61,-84,-14,165,-179,-75
,1352,2018/03/15 00:37:55.45,632,2581,-16207,17,19,-81,-37,139,-176,-51
,1353,2018/03/15 00:37:55.47,595,2622,-16164,-25,-6,-62,-38,140,-178,-51
,1354,2018/03/15 00:37:55.49,623,2624,-16147,-10,-21,-55,-31,145,-176,-57
,1355,2018/03/15 00:37:55.51,559,2641,-16167,1,3,-49,-24,154,-178,-65
,1356,2018/03/15 00:37:55.53,551,2691,-16117,-16,-10,-37,-28,150,-178,-61
,1357,2018/03/15 00:37:55.55,560,2728,-16221,-43,-16,-40,-36,148,-184,-56
,1358,2018/03/15 00:37:55.57,581,2724,-16141,-55,-23,-47,-32,155,-187,-61
,1359,2018/03/15 00:37:55.59,558,2741,-16167,-38,-8,-79,-20,161,-181,-70
,1360,2018/03/15 00:37:55.61,539,2706,-16227,-40,1,-96,-25,155,-180,-65
,1361,2018/03/15 00:37:55.63,545,2674,-16205,-17,-9,-86,-30,148,-178,-59
,1362,2018/03/15 00:37:55.65,641,2685,-16176,-42,-45,-40,-31,159,-190,-64
,1363,2018/03/15 00:37:55.67,599,2720,-16125,-23,-62,-8,-36,152,-188,-58
,1364,2018/03/15 00:37:55.69,554,2700,-16159,-20,-103,31,-27,158,-185,-65
,1365,2018/03/15 00:37:55.71,563,2684,-16170,14,-89,49,-31,159,-190,-64
,1366,2018/03/15 00:37:55.73,592,2723,-16226,32,-109,58,-28,146,-174,-59
,1367,2018/03/15 00:37:55.75,599,2715,-16168,67,-139,64,-31,137,-168,-53
,1368,2018/03/15 00:37:55.77,465,2744,-16148,90,-139,52,-30,148,-178,-59
,1369,2018/03/15 00:37:55.79,594,2722,-16124,76,-130,51,-28,149,-177,-60
,1370,2018/03/15 00:37:55.81,489,2736,-16147,45,-77,40,-35,150,-185,-57
,1371,2018/03/15 00:37:55.83,499,2651,-16189,121,-70,15,-42,148,-190,-53
,1372,2018/03/15 00:37:55.85,451,2639,-16174,191,-102,52,-31,156,-187,-62
,1373,2018/03/15 00:37:55.87,538,2701,-16050,224,-34,52,-26,148,-174,-61
,1374,2018/03/15 00:37:55.89,453,2675,-16140,92,93,24,-28,147,-175,-59
,1375,2018/03/15 00:37:55.91,518,2706,-16197,0,116,-20,-23,158,-181,-67
,1376,2018/03/15 00:37:55.93,496,2684,-16215,-55,48,-56,-25,160,-185,-67
,1377,2018/03/15 00:37:55.95,498,2716,-16125,-36,15,-72,-32,152,-184,-60
,1378,2018/03/15 00:37:55.97,542,2706,-16148,-23,18,-55,-30,153,-183,-61
,1379,2018/03/15 00:37:55.99,496,2716,-16235,-4,23,-39,-28,163,-191,-67
,1380,2018/03/15 00:37:56.01,440,2634,-16189,27,-13,4,-35,160,-195,-62
,1381,2018/03/15 00:37:56.03,552,2740,-16154,53,-23,40,-28,165,-193,-68
,1382,2018/03/15 00:37:56.05,544,2773,-16144,31,-13,39,-12,178,-190,-83
,1383,2018/03/15 00:37:56.07,480,2707,-16213,24,3,9,-14,186,-200,-86
,1384,2018/03/15 00:37:56.09,550,2716,-16142,82,-33,0,-13,179,-192,-83
,1385,2018/03/15 00:37:56.11,464,2669,-16164,135,-5,4,-27,153,-180,-63
,1386,2018/03/15 00:37:56.13,450,2660,-16170,172,-10,36,-37,142,-179,-52
,1387,2018/03/15 00:37:56.15,490,2628,-16172,137,33,34,-35,142,-177,-53
,1388,2018/03/15 00:37:56.17,520,2640,-16203,156,30,66,-45,136,-181,-45
,1389,2018/03/15 00:37:56.19,561,2662,-16188,102,-6,69,-58,134,-192,-38
,1390,2018/03/15 00:37:56.21,497,2676,-16190,44,-43,52,-48,135,-183,-43
,1391,2018/03/15 00:37:56.23,480,2638,-16152,-3,-63,19,-48,128,-176,-40
,1392,2018/03/15 00:37:56.25,510,2733,-16227,-22,-73,-17,-42,135,-177,-46
,1393,2018/03/15 00:37:56.27,488,2636,-16189,-53,-53,-29,-38,142,-180,-52
,1394,2018/03/15 00:37:56.29,448,2664,-16165,-14,-48,-32,-36,146,-182,-55
,1395,2018/03/15 00:37:56.31,510,2721,-16163,-51,-22,-29,-50,133,-183,-41
,1396,2018/03/15 00:37:56.33,505,2685,-16179,-10,-19,-19,-60,123,-183,-31
,1397,2018/03/15 00:37:56.35,488,2685,-16132,-34,-9,-30,-67,122,-189,-27
,1398,2018/03/15 00:37:56.37,460,2708,-16206,-12,-36,-27,-74,126,-200,-26
,1399,2018/03/15 00:37:56.39,582,2756,-16178,-5,-32,-53,-67,115,-182,-24
,1400,2018/03/15 00:37:56.41,554,2702,-16162,33,-76,-55,-52,117,-169,-32
,1401,2018/03/15 00:37:56.43,505,2752,-16150,38,-90,-54,-50,117,-167,-33
,1402,2018/03/15 00:37:56.45,528,2729,-16197,72,-91,-28,-59,110,-169,-25
,1403,2018/03/15 00:37:56.47,515,2722,-16150,97,-108,-1,-54,119,-173,-32
,1404,2018/03/15 00:37:56.49,480,2749,-16154,117,-150,33,-47,111,-158,-32
,1405,2018/03/15 00:37:56.51,472,2698,-16219,131,-163,56,-35,110,-145,-37
,1406,2018/03/15 00:37:56.53,469,2736,-16115,169,-177,86,-36,110,-146,-37
,1407,2018/03/15 00:37:56.55,528,2720,-16181,191,-171,112,-48,106,-154,-29
,1408,2018/03/15 00:37:56.57,408,2691,-16126,193,-191,94,-53,121,-174,-34
,1409,2018/03/15 00:37:56.59,433,2698,-16171,175,-166,92,-42,126,-168,-42
,1410,2018/03/15 00:37:56.61,381,2636,-16219,218,-176,119,-39,127,-166,-44
,1411,2018/03/15 00:37:56.63,323,2630,-16160,309,-206,115,-39,133,-172,-47
,1412,2018/03/15 00:37:56.65,365,2624,-16019,284,-109,103,-44,127,-171,-41
,1413,2018/03/15 00:37:56.67,385,2637,-16112,258,21,81,-50,123,-173,-36
,1414,2018/03/15 00:37:56.69,375,2656,-16203,177,68,28,-43,120,-163,-38
,1415,2018/03/15 00:37:56.71,357,2617,-16223,155,-17,-9,-45,122,-167,-38
,1416,2018/03/15 00:37:56.73,401,2609,-16201,142,-46,-31,-32,130,-162,-49
,1417,2018/03/15 00:37:56.75,410,2611,-16123,148,-32,-58,-26,131,-157,-52
,1418,2018/03/15 00:37:56.77,361,2500,-16197,169,7,-54,-26,130,-156,-52
,1419,2018/03/15 00:37:56.79,382,2522,-16219,189,-1,-28,-35,123,-158,-44
,1420,2018/03/15 00:37:56.81,413,2547,-16216,186,-12,3,-50,99,-149,-24
,1421,2018/03/15 00:37:56.83,466,2520,-16172,118,-44,-7,-61,69,-130,-4
,1422,2018/03/15 00:37:56.85,360,2541,-16258,57,-10,3,-101,21,-122,40
,1423,2018/03/15 00:37:56.87,438,2469,-16229,107,-35,21,-126,-10,-116,68
,1424,2018/03/15 00:37:56.89,344,2488,-16252,137,-19,16,-119,2,-121,58
,1425,2018/03/15 00:37:56.91,459,2520,-16188,169,-7,19,-105,19,-124,43
,1426,2018/03/15 00:37:56.93,418,2512,-16228,119,63,-10,-66,63,-129,1
,1427,2018/03/15 00:37:56.95,508,2510,-16261,62,43,-49,-29,110,-139,-40
,1428,2018/03/15 00:37:56.97,473,2531,-16243,1,16,-92,-3,147,-150,-72
,1429,2018/03/15 00:37:56.99,400,2518,-16212,-29,-14,-107,27,168,-141,-97
,1430,2018/03/15 00:37:57.01,475,2559,-16177,-53,-17,-97,38,177,-139,-107
,1431,2018/03/15 00:37:57.03,434,2553,-16174,-75,-37,-101,41,182,-141,-111
,1432,2018/03/15 00:37:57.05,483,2541,-16169,-80,-8,-77,45,189,-144,-117
,1433,2018/03/15 00:37:57.07,398,2535,-16202,-91,-8,-38,30,182,-152,-106
,1434,2018/03/15 00:37:57.09,396,2575,-16161,-89,1,-15,24,171,-147,-97
,1435,2018/03/15 00:37:57.11,442,2655,-16142,-67,-1,-40,29,183,-154,-106
,1436,2018/03/15 00:37:57.13,324,2679,-16190,-44,24,-63,25,185,-160,-105
,1437,2018/03/15 00:37:57.15,368,2695,-16152,-15,53,-134,6,169,-163,-87
,1438,2018/03/15 00:37:57.17,432,2676,-16155,6,58,-163,4,166,-162,-85
,1439,2018/03/15 00:37:57.19,456,2663,-16167,71,80,-160,-5,154,-159,-74
,1440,2018/03/15 00:37:57.21,411,2607,-16179,78,66,-130,-6,153,-159,-73
,1441,2018/03/15 00:37:57.23,392,2556,-16204,101,51,-88,-18,142,-160,-62
,1442,2018/03/15 00:37:57.25,387,2571,-16190,112,56,-38,-31,135,-166,-52
,1443,2018/03/15 00:37:57.27,446,2522,-16263,122,40,-4,-30,127,-157,-48
,1444,2018/03/15 00:37:57.29,508,2486,-16225,135,25,11,-32,114,-146,-41
,1445,2018/03/15 00:37:57.31,418,2537,-16182,143,6,0,-48,101,-149,-26
,1446,2018/03/15 00:37:57.33,411,2556,-16216,121,7,-25,-43,111,-154,-34
,1447,2018/03/15 00:37:57.35,440,2567,-16249,88,-13,-55,-44,113,-157,-34
,1448,2018/03/15 00:37:57.37,498,2489,-16189,51,-24,-64,-53,99,-152,-23
,1449,2018/03/15 00:37:57.39,411,2555,-16288,16,-22,-57,-46,103,-149,-28
,1450,2018/03/15 00:37:57.41,432,2494,-16259,35,-48,-32,-44,103,-147,-29
,1451,2018/03/15 00:37:57.43,339,2478,-16268,117,-112,10,-40,110,-150,-35
,1452,2018/03/15 00:37:57.45,352,2488,-16056,141,-66,50,-39,110,-149,-35
,1453,2018/03/15 00:37:57.47,383,2618,-16074,79,98,49,-32,113,-145,-40
,1454,2018/03/15 00:37:57.49,449,2609,-16203,8,167,-23,-50,98,-148,-24
,1455,2018/03/15 00:37:57.51,449,2612,-16266,-12,115,-109,-39,104,-143,-32
,1456,2018/03/15 00:37:57.53,431,2592,-16194,14,85,-188,-46,104,-150,-29
,1457,2018/03/15 00:37:57.55,446,2554,-16166,41,67,-227,-64,101,-165,-18
,1458,2018/03/15 00:37:57.57,420,2512,-16214,67,84,-207,-59,100,-159,-20
,1459,2018/03/15 00:37:57.59,421,2445,-16250,67,85,-143,-62,98,-160,-18
,1460,2018/03/15 00:37:57.61,485,2417,-16237,88,41,-51,-64,102,-166,-19
,1461,2018/03/15 00:37:57.63,445,2525,-16177,94,2,23,-56,106,-162,-25
,1462,2018/03/15 00:37:57.65,447,2554,-16203,97,3,49,-62,102,-164,-20
,1463,2018/03/15 00:37:57.67,447,2514,-16251,101,27,8,-65,98,-163,-16
,1464,2018/03/15 00:37:57.69,474,2547,-16184,115,30,-10,-54,105,-159,-25
,1465,2018/03/15 00:37:57.71,449,2516,-16209,147,45,-25,-55,107,-162,-26
,1466,2018/03/15 00:37:57.73,431,2543,-16212,135,90,-63,-52,106,-158,-27
,1467,2018/03/15 00:37:57.75,463,2485,-16245,99,104,-56,-55,101,-156,-23
,1468,2018/03/15 00:37:57.77,522,2539,-16232,88,92,-75,-63,97,-160,-17
,1469,2018/03/15 00:37:57.79,475,2543,-16153,38,77,-116,-59,99,-158,-20
,1470,2018/03/15 00:37:57.81,440,2538,-16153,6,69,-139,-59,100,-159,-20
,1471,2018/03/15 00:37:57.83,433,2553,-16190,-47,69,-144,-58,100,-158,-21
,1472,2018/03/15 00:37:57.85,404,2494,-16186,-49,59,-162,-61,97,-158,-18
,1473,2018/03/15 00:37:57.87,473,2500,-16178,-19,63,-130,-55,106,-161,-25
,1474,2018/03/15 00:37:57.89,508,2491,-16182,-13,74,-116,-48,115,-163,-33
,1475,2018/03/15 00:37:57.91,428,2562,-16182,-21,74,-121,-44,106,-150,-31
,1476,2018/03/15 00:37:57.93,548,2535,-16210,-41,69,-123,-36,112,-148,-38
,1477,2018/03/15 00:37:57.95,476,2613,-16241,-33,49,-130,-41,120,-161,-39
,1478,2018/03/15 00:37:57.97,519,2565,-16171,-38,52,-153,-51,103,-154,-26
,1479,2018/03/15 00:37:57.99,511,2567,-16248,-8,38,-144,-35,108,-143,-36
,1480,2018/03/15 00:37:58.01,495,2548,-16201,10,11,-142,-38,110,-148,-36
,1481,2018/03/15 00:37:58.03,458,2526,-16212,72,17,-93,-45,103,-148,-29
,1482,2018/03/15 00:37:58.05,467,2471,-16213,98,-7,-63,-46,100,-146,-27
,1483,2018/03/15 00:37:58.07,446,2537,-16175,108,8,-3,-57,92,-149,-17
,1484,2018/03/15 00:37:58.09,514,2532,-16241,79,-17,6,-48,96,-144,-24
,1485,2018/03/15 00:37:58.11,474,2516,-16248,83,-9,-9,-41,108,-149,-33
,1486,2018/03/15 00:37:58.13,479,2494,-16207,87,-19,-10,-47,94,-141,-23
,1487,2018/03/15 00:37:58.15,488,2524,-16185,117,-17,-45,-61,93,-154,-16
,1488,2018/03/15 00:37:58.17,430,2450,-16258,98,-14,-57,-50,96,-146,-23
,1489,2018/03/15 00:37:58.19,416,2486,-16206,54,9,-77,-44,94,-138,-25
,1490,2018/03/15 00:37:58.21,439,2468,-16246,49,-12,-100,-49,92,-141,-21
,1491,2018/03/15 00:37:58.23,452,2394,-16255,58,-53,-68,-44,94,-138,-25
,1492,2018/03/15 00:37:58.25,432,2455,-16120,82,-55,-10,-34,97,-131,-31
,1493,2018/03/15 00:37:58.27,476,2511,-16060,15,74,-10,-31,101,-132,-35
,1494,2018/03/15 00:37:58.29,399,2549,-16220,-34,139,-33,-33,96,-129,-31
,1495,2018/03/15 00:37:58.31,421,2562,-16299,-88,119,-92,-63,66,-129,-1
,1496,2018/03/15 00:37:58.33,493,2634,-16257,-50,37,-136,-109,27,-136,41
,1497,2018/03/15 00:37:58.35,520,2582,-16185,-47,33,-181,-160,-31,-129,95
,1498,2018/03/15 00:37:58.37,452,2507,-16176,-44,28,-196,-163,-29,-134,96
,1499,2018/03/15 00:37:58.39,462,2479,-16240,-26,14,-157,-139,-5,-134,72
,1500,2018/03/15 00:37:58.41,451,2426,-16230,23,-31,-39,-134,5,-139,64
,1501,2018/03/15 00:37:58.43,431,2491,-16174,67,-72,30,-127,11,-138,58
,1502,2018/03/15 00:37:58.45,427,2538,-16204,72,-56,63,-100,35,-135,32
,1503,2018/03/15 00:37:58.47,480,2531,-16258,66,-57,54,-123,18,-141,52
,1504,2018/03/15 00:37:58.49,430,2515,-16162,67,-44,38,-126,8,-134,59
,1505,2018/03/15 00:37:58.51,515,2502,-16180,99,13,9,-108,33,-141,37
,1506,2018/03/15 00:37:58.53,380,2518,-16186,64,36,-28,-89,58,-147,15
,1507,2018/03/15 00:37:58.55,466,2535,-16223,34,55,-50,-76,72,-148,2
,1508,2018/03/15 00:37:58.57,471,2476,-16215,29,58,-86,-64,90,-154,-13
,1509,2018/03/15 00:37:58.59,465,2556,-16198,-17,70,-109,-46,109,-155,-31
,1510,2018/03/15 00:37:58.61,491,2524,-16192,-9,60,-111,-26,127,-153,-50
,1511,2018/03/15 00:37:58.63,441,2522,-16216,-26,54,-114,-21,140,-161,-59
,1512,2018/03/15 00:37:58.65,432,2568,-16190,8,29,-101,-29,131,-160,-51
,1513,2018/03/15 00:37:58.67,545,2530,-16181,14,30,-82,-33,128,-161,-47
,1514,2018/03/15 00:37:58.69,410,2544,-16205,13,49,-69,-36,121,-157,-42
,1515,2018/03/15 00:37:58.71,420,2535,-16214,39,28,-56,-25,128,-153,-51
,1516,2018/03/15 00:37:58.73,565,2547,-16164,22,25,-62,-16,142,-158,-63
,1517,2018/03/15 00:37:58.75,501,2537,-16187,-4,18,-76,-10,137,-147,-63
,1518,2018/03/15 00:37:58.77,511,2526,-16184,0,-13,-93,-13,135,-148,-61
,1519,2018/03/15 00:37:58.79,491,2541,-16201,6,-21,-95,-4,141,-145,-68
,1520,2018/03/15 00:37:58.81,452,2500,-16249,64,-14,-72,1,143,-142,-72
,1521,2018/03/15 00:37:58.83,460,2523,-16211,45,-24,-32,-9,129,-138,-60
,1522,2018/03/15 00:37:58.85,513,2550,-16230,49,-11,7,-13,126,-139,-56
,1523,2018/03/15 00:37:58.87,519,2563,-16182,37,1,-10,-17,120,-137,-51
,1524,2018/03/15 00:37:58.89,459,2579,-16229,84,-1,-14,-22,121,-143,-49
,1525,2018/03/15 00:37:58.91,521,2571,-16250,108,-21,-20,-11,122,-133,-55
,1526,2018/03/15 00:37:58.93,419,2541,-16208,117,-51,-35,-12,117,-129,-52
,1527,2018/03/15 00:37:58.95,493,2516,-16215,135,-39,-28,-25,117,-142,-46
,1528,2018/03/15 00:37:58.97,483,2465,-16134,126,-32,-22,-54,93,-147,-19
,1529,2018/03/15 00:37:58.99,462,2526,-16258,80,-1,16,-67,61,-128,3
,1530,2018/03/15 00:37:59.01,429,2492,-16248,116,-20,29,-105,21,-126,42
,1531,2018/03/15 00:37:59.03,407,2440,-16098,220,-74,52,-140,-21,-119,80
,1532,2018/03/15 00:37:59.05,493,2543,-16087,153,43,41,-135,-14,-121,74
,1533,2018/03/15 00:37:59.07,486,2537,-16140,37,122,-27,-195,31,-226,82
,1534,2018/03/15 00:37:59.09,516,2514,-16297,-27,94,-120,-149,70,-219,39
,1535,2018/03/15 00:37:59.11,483,2488,-16284,-15,-7,-162,-54,105,-159,-25
,1536,2018/03/15 00:37:59.13,526,2512,-16187,-11,-45,-161,11,138,-127,-74
,1537,2018/03/15 00:37:59.15,444,2453,-16158,9,-38,-128,60,168,-108,-114
,1538,2018/03/15 00:37:59.17,421,2437,-16224,19,-20,-63,97,190,-93,-143
,1539,2018/03/15 00:37:59.19,487,2454,-16305,62,-39,19,106,198,-92,-152
,1540,2018/03/15 00:37:59.21,454,2552,-16180,68,-47,64,105,197,-92,-151
,1541,2018/03/15 00:37:59.23,429,2580,-16226,65,-34,40,104,186,-82,-145
,1542,2018/03/15 00:37:59.25,505,2548,-16233,87,-58,-1,93,176,-83,-134
,1543,2018/03/15 00:37:59.27,459,2488,-16197,111,-18,-38,96,177,-81,-136
,1544,2018/03/15 00:37:59.29,475,2427,-16194,145,-14,-56,91,176,-85,-133
,1545,2018/03/15 00:37:59.31,505,2436,-16209,119,48,-48,69,158,-89,-113
,1546,2018/03/15 00:37:59.33,464,2394,-16233,107,60,-9,65,168,-103,-116
,1547,2018/03/15 00:37:59.35,496,2409,-16227,69,36,-11,40,157,-117,-98
,1548,2018/03/15 00:37:59.37,531,2474,-16248,30,11,-52,38,157,-119,-97
,1549,2018/03/15 00:37:59.39,495,2529,-16234,-16,-25,-61,42,163,-121,-102
,1550,2018/03/15 00:37:59.41,518,2460,-16243,-16,-27,-89,19,136,-117,-77
,1551,2018/03/15 00:37:59.43,485,2493,-16210,11,-31,-67,18,132,-114,-75
,1552,2018/03/15 00:37:59.45,413,2445,-16233,33,2,-43,13,126,-113,-69
,1553,2018/03/15 00:37:59.47,420,2508,-16197,17,5,-12,4,119,-115,-61
,1554,2018/03/15 00:37:59.49,485,2499,-16190,0,10,-3,0,117,-117,-58
,1555,2018/03/15 00:37:59.51,487,2520,-16228,-9,5,-13,-4,116,-120,-56
,1556,2018/03/15 00:37:59.53,463,2539,-16234,10,-5,-45,8,119,-111,-63
,1557,2018/03/15 00:37:59.55,489,2510,-16176,16,-2,-64,-3,116,-119,-56
,1558,2018/03/15 00:37:59.57,475,2486,-16217,-3,-61,-61,-8,122,-130,-57
,1559,2018/03/15 00:37:59.59,497,2469,-16206,-40,-93,-42,-5,114,-119,-54
,1560,2018/03/15 00:37:59.61,416,2472,-16169,-37,-103,-11,-12,105,-117,-46
,1561,2018/03/15 00:37:59.63,446,2509,-16241,-48,-97,14,-15,106,-121,-45
,1562,2018/03/15 00:37:59.65,444,2573,-16196,18,-89,39,-8,108,-116,-50
,1563,2018/03/15 00:37:59.67,425,2578,-16193,61,-93,21,-14,97,-111,-41
,1564,2018/03/15 00:37:59.69,448,2589,-16196,83,-75,2,-14,101,-115,-43
,1565,2018/03/15 00:37:59.71,396,2510,-16151,115,-75,0,-28,93,-121,-32
,1566,2018/03/15 00:37:59.73,414,2515,-16235,104,-51,-18,-17,100,-117,-41
,1567,2018/03/15 00:37:59.75,331,2502,-16177,86,-39,-21,-25,89,-114,-32
,1568,2018/03/15 00:37:59.77,433,2513,-16196,78,-23,-41,-32,85,-117,-26
,1569,2018/03/15 00:37:59.79,372,2379,-16320,115,-37,-9,-18,100,-118,-41
,1570,2018/03/15 00:37:59.81,383,2415,-16170,179,-70,16,-4,116,-120,-56
,1571,2018/03/15 00:37:59.83,398,2424,-16116,115,61,42,-4,121,-125,-58
,1572,2018/03/15 00:37:59.85,442,2483,-16241,4,128,7,-8,119,-127,-55
,1573,2018/03/15 00:37:59.87,494,2471,-16276,-73,108,-83,-8,114,-122,-53
,1574,2018/03/15 00:37:59.89,464,2521,-16263,-31,44,-146,-19,105,-124,-43
,1575,2018/03/15 00:37:59.91,395,2523,-16215,-27,4,-195,-12,106,-118,-47
,1576,2018/03/15 00:37:59.93,345,2458,-16188,-44,8,-193,-25,103,-128,-39
,1577,2018/03/15 00:37:59.95,399,2460,-16237,-58,18,-128,-24,114,-138,-45
,1578,2018/03/15 00:37:59.97,424,2430,-16254,-32,-29,-49,-14,120,-134,-53
,1579,2018/03/15 00:37:59.99,391,2489,-16172,8,-59,35,-28,106,-134,-39
,1580,2018/03/15 00:38:00.01,410,2552,-16205,21,-40,55,-26,104,-130,-39
,1581,2018/03/15 00:38:00.03,435,2522,-16228,58,-62,44,-19,109,-128,-45
,1582,2018/03/15 00:38:00.05,435,2499,-16211,85,-53,-3,-18,110,-128,-46
,1583,2018/03/15 00:38:00.07,440,2547,-16220,100,-32,-33,-16,120,-136,-52
,1584,2018/03/15 00:38:00.09,369,2485,-16210,60,37,-65,-24,111,-135,-43
,1585,2018/03/15 00:38:00.11,451,2463,-16225,22,55,-90,-30,101,-131,-35
,1586,2018/03/15 00:38:00.13,459,2450,-16199,4,71,-102,-37,101,-138,-32
,1587,2018/03/15 00:38:00.15,417,2487,-16194,-13,70,-125,-35,112,-147,-38
,1588,2018/03/15 00:38:00.17,448,2512,-16181,-24,39,-131,-36,105,-141,-34
,1589,2018/03/15 00:38:00.19,431,2504,-16236,-50,27,-130,-32,103,-135,-35
,1590,2018/03/15 00:38:00.21,423,2526,-16232,-45,25,-121,-32,98,-130,-33
