// Data mode  : Standard
// Transmission speed  : 50Hz
// Accelerometer sensor's range  : 2g
// Gyroscope sensor's range  : 250dps
//
//ARTIFACT,NUM,DATE,ACC_X,ACC_Y,ACC_Z,EOG_L1,EOG_R1,EOG_L2,EOG_R2,EOG_H1,EOG_H2,EOG_V1,EOG_V2
,1,2018/03/15 17:20:23.89,-4046,11690,-11429,-94,83,-72,112,-177,-184,5,-20
,2,2018/03/15 17:20:23.91,-4028,11708,-11378,-49,150,-126,68,-199,-194,-50,29
,3,2018/03/15 17:20:23.93,-4051,11572,-11269,-50,156,-86,120,-206,-206,-53,-17
,4,2018/03/15 17:20:23.95,-4119,11314,-11126,-72,114,-35,157,-186,-192,-21,-61
,5,2018/03/15 17:20:23.97,-4321,11082,-11254,-96,94,-19,178,-190,-197,1,-79
,6,2018/03/15 17:20:23.99,-4372,11099,-11101,-66,128,-69,116,-194,-185,-31,-23
,7,2018/03/15 17:20:24.01,-4456,11126,-11021,-26,161,-94,67,-187,-161,-67,13
,8,2018/03/15 17:20:24.03,-4383,11119,-10954,-30,122,-63,96,-152,-159,-46,-16
,9,2018/03/15 17:20:24.05,-4437,11288,-10997,-73,77,-19,129,-150,-148,-2,-55
,10,2018/03/15 17:20:24.07,-4450,11350,-10714,-96,43,-57,87,-139,-144,26,-15
,11,2018/03/15 17:20:24.09,-4580,11448,-11176,-91,60,-99,45,-151,-144,15,27
,12,2018/03/15 17:20:24.11,-4612,11423,-11025,-42,100,-120,17,-142,-137,-29,51
,13,2018/03/15 17:20:24.13,-4478,11475,-10966,-65,91,-84,93,-156,-177,-13,-4
,14,2018/03/15 17:20:24.15,-4492,11298,-11097,-111,56,-38,118,-167,-156,27,-40
,15,2018/03/15 17:20:24.17,-4351,11302,-11132,-96,40,-51,82,-136,-133,28,-15
,16,2018/03/15 17:20:24.19,-4227,11258,-11094,-67,69,-98,47,-136,-145,-1,25
,17,2018/03/15 17:20:24.21,-4314,11183,-11228,-37,128,-102,58,-165,-160,-45,22
,18,2018/03/15 17:20:24.23,-4252,11225,-11173,-51,124,-50,131,-175,-181,-36,-40
,19,2018/03/15 17:20:24.25,-4255,11198,-11009,-97,70,-35,148,-167,-183,13,-56
,20,2018/03/15 17:20:24.27,-4203,11191,-11072,-129,59,-124,64,-188,-188,35,30
,21,2018/03/15 17:20:24.29,-4221,11150,-11117,-141,58,-211,-22,-199,-189,41,116
,22,2018/03/15 17:20:24.31,-4148,11214,-11207,-151,55,-215,-7,-206,-208,48,111
,23,2018/03/15 17:20:24.33,-4133,11241,-11242,-196,15,-179,29,-211,-208,90,75
,24,2018/03/15 17:20:24.35,-4088,11219,-11191,-232,-37,-162,52,-195,-214,134,55
,25,2018/03/15 17:20:24.37,-4057,11216,-11091,-208,2,-176,30,-210,-206,103,73
,26,2018/03/15 17:20:24.39,-3931,11160,-11120,-142,70,-188,-1,-212,-187,36,94
,27,2018/03/15 17:20:24.41,-3935,10974,-11165,-110,69,-162,18,-179,-180,20,72
,28,2018/03/15 17:20:24.43,-3833,11365,-10982,-143,44,-99,89,-187,-188,49,5
,29,2018/03/15 17:20:24.45,-3822,11259,-11246,-154,23,-78,104,-177,-182,65,-13
,30,2018/03/15 17:20:24.47,-3757,11067,-11332,-105,55,-99,55,-160,-154,25,22
,31,2018/03/15 17:20:24.49,-3718,11122,-11081,-56,129,-116,68,-185,-184,-36,24
,32,2018/03/15 17:20:24.51,-3674,11145,-11046,-43,145,-84,95,-188,-179,-51,-5
,33,2018/03/15 17:20:24.53,-3724,11214,-11255,-89,80,-30,146,-169,-176,4,-58
,34,2018/03/15 17:20:24.55,-3862,11296,-11273,-99,67,-41,129,-166,-170,16,-44
,35,2018/03/15 17:20:24.57,-3894,11453,-11219,-76,102,-98,86,-178,-184,-13,6
,36,2018/03/15 17:20:24.59,-3922,11414,-11158,-35,163,-102,81,-198,-183,-64,10
,37,2018/03/15 17:20:24.61,-3914,11471,-11051,-40,124,-59,89,-164,-148,-42,-15
,38,2018/03/15 17:20:24.63,-3974,11257,-11055,-85,54,-22,131,-139,-153,15,-54
,39,2018/03/15 17:20:24.65,-4009,11326,-11111,-100,49,-38,118,-149,-156,25,-40
,40,2018/03/15 17:20:24.67,-4080,11174,-11109,-53,109,-94,63,-162,-157,-28,15
,41,2018/03/15 17:20:24.69,-4121,11089,-11141,-16,146,-95,51,-162,-146,-65,22
,42,2018/03/15 17:20:24.71,-4149,11068,-11088,-27,109,-13,126,-136,-139,-41,-56
,43,2018/03/15 17:20:24.73,-4122,11133,-10911,-58,75,-2,142,-133,-144,-8,-70
,44,2018/03/15 17:20:24.75,-4057,11145,-10986,-90,52,-62,78,-142,-140,19,-8
,45,2018/03/15 17:20:24.77,-4129,11175,-10992,-58,87,-109,37,-145,-146,-14,36
,46,2018/03/15 17:20:24.79,-4052,11147,-11069,-21,143,-89,75,-164,-164,-61,7
,47,2018/03/15 17:20:24.81,-4032,11177,-11163,-52,116,-33,130,-168,-163,-32,-48
,48,2018/03/15 17:20:24.83,-3912,11039,-11247,-90,54,-6,141,-144,-147,18,-67
,49,2018/03/15 17:20:24.85,-3851,11199,-11030,-61,76,-30,116,-137,-146,-7,-43
,50,2018/03/15 17:20:24.87,-3849,11219,-11070,-4,146,-69,71,-150,-140,-71,-1
,51,2018/03/15 17:20:24.89,-3792,11128,-11164,6,151,-63,77,-145,-140,-78,-7
,52,2018/03/15 17:20:24.91,-3684,11110,-11213,-58,78,-30,117,-136,-147,-10,-43
,53,2018/03/15 17:20:24.93,-3498,11289,-11042,-106,31,-33,120,-137,-153,37,-43
,54,2018/03/15 17:20:24.95,-3445,11567,-10972,-90,75,-92,76,-165,-168,7,8
,55,2018/03/15 17:20:24.97,-3355,11774,-11117,-48,117,-137,18,-165,-155,-34,59
,56,2018/03/15 17:20:24.99,-3219,12052,-11279,-74,86,-132,14,-160,-146,-6,59
,57,2018/03/15 17:20:25.01,-3237,12240,-11479,-146,10,-88,87,-156,-175,68,0
,58,2018/03/15 17:20:25.03,-3189,12086,-11300,-154,8,-92,71,-162,-163,73,10
,59,2018/03/15 17:20:25.05,-3149,12061,-11022,-135,11,-144,-20,-146,-124,62,82
,60,2018/03/15 17:20:25.07,-3240,11855,-11127,-94,46,-159,-22,-140,-137,24,90
,61,2018/03/15 17:20:25.09,-3295,11641,-11086,-85,58,-112,36,-143,-148,13,38
,62,2018/03/15 17:20:25.11,-3387,11447,-11346,-141,1,-66,103,-142,-169,70,-18
,63,2018/03/15 17:20:25.13,-3366,11405,-11254,-126,38,-50,108,-164,-158,44,-29
,64,2018/03/15 17:20:25.15,-3337,11193,-11242,-66,100,-105,53,-166,-158,-17,26
,65,2018/03/15 17:20:25.17,-3237,10994,-11165,-52,118,-135,30,-170,-165,-33,52
,66,2018/03/15 17:20:25.19,-3279,11051,-11267,-82,80,-85,76,-162,-161,1,4
,67,2018/03/15 17:20:25.21,-3292,10997,-11386,-112,43,-36,126,-155,-162,34,-45
,68,2018/03/15 17:20:25.23,-3260,11002,-11448,-99,52,-57,85,-151,-142,23,-14
,69,2018/03/15 17:20:25.25,-3339,11261,-11290,-66,72,-110,24,-138,-134,-3,43
,70,2018/03/15 17:20:25.27,-3185,11364,-11391,-34,109,-105,31,-143,-136,-37,37
,71,2018/03/15 17:20:25.29,-3181,11322,-11527,-73,64,-67,76,-137,-143,4,-4
,72,2018/03/15 17:20:25.31,-3180,11360,-11333,-113,10,-34,90,-123,-124,51,-28
,73,2018/03/15 17:20:25.33,-3195,11293,-11393,-84,27,-45,67,-111,-112,28,-11
,74,2018/03/15 17:20:25.35,-3174,11286,-11442,-23,96,-66,31,-119,-97,-36,17
,75,2018/03/15 17:20:25.37,-3176,11258,-11262,6,124,-68,50,-118,-118,-65,9
,76,2018/03/15 17:20:25.39,-3288,11281,-11505,-59,56,-44,87,-115,-131,1,-21
,77,2018/03/15 17:20:25.41,-3308,11267,-11435,-115,12,-43,101,-127,-144,51,-29
,78,2018/03/15 17:20:25.43,-3096,11103,-11613,-91,49,-74,56,-140,-130,21,9
,79,2018/03/15 17:20:25.45,-3120,11264,-11374,-48,93,-114,11,-141,-125,-22,51
,80,2018/03/15 17:20:25.47,-3092,11298,-11369,-24,91,-59,63,-115,-122,-33,-2
,81,2018/03/15 17:20:25.49,-3213,11216,-11613,-54,69,-18,107,-123,-125,-7,-44
,82,2018/03/15 17:20:25.51,-3260,11346,-11719,-91,21,-23,86,-112,-109,35,-31
,83,2018/03/15 17:20:25.53,-3331,11397,-11614,-45,43,-55,19,-88,-74,1,18
,84,2018/03/15 17:20:25.55,-3414,11480,-11596,-3,73,-78,-8,-76,-70,-35,43
,85,2018/03/15 17:20:25.57,-3596,11487,-11693,-18,56,-43,25,-74,-68,-19,9
,86,2018/03/15 17:20:25.59,-3752,11766,-11495,-63,-6,-27,34,-57,-61,34,-3
,87,2018/03/15 17:20:25.61,-3758,11959,-11567,-100,-44,-36,39,-56,-75,72,-1
,88,2018/03/15 17:20:25.63,-3895,12029,-11507,-53,44,-72,30,-97,-102,4,21
,89,2018/03/15 17:20:25.65,-3902,11916,-11498,-16,108,-90,36,-124,-126,-46,27
,90,2018/03/15 17:20:25.67,-3872,11885,-11510,-49,82,-72,59,-131,-131,-16,6
,91,2018/03/15 17:20:25.69,-3684,11653,-11635,-103,14,-30,103,-117,-133,44,-36
,92,2018/03/15 17:20:25.71,-3669,11477,-11787,-99,35,-49,89,-134,-138,32,-20
,93,2018/03/15 17:20:25.73,-3537,11318,-11781,-63,94,-112,50,-157,-162,-15,31
,94,2018/03/15 17:20:25.75,-3389,11150,-11717,-46,133,-122,58,-179,-180,-43,32
,95,2018/03/15 17:20:25.77,-3256,11091,-11560,-83,102,-64,120,-185,-184,-9,-28
,96,2018/03/15 17:20:25.79,-3133,11045,-11634,-108,68,-32,159,-176,-191,20,-63
,97,2018/03/15 17:20:25.81,-2950,11037,-11945,-103,91,-66,124,-194,-190,6,-29
,98,2018/03/15 17:20:25.83,-2772,10931,-11994,-40,156,-105,80,-196,-185,-58,12
,99,2018/03/15 17:20:25.85,-2735,10896,-11957,-42,147,-108,79,-189,-187,-52,14
,100,2018/03/15 17:20:25.87,-2654,11010,-11881,-91,95,-62,123,-186,-185,-2,-30
,101,2018/03/15 17:20:25.89,-2570,11026,-11680,-122,45,-37,142,-167,-179,38,-52
,102,2018/03/15 17:20:25.91,-2504,11156,-11706,-98,93,-87,97,-191,-184,2,-5
,103,2018/03/15 17:20:25.93,-2505,11101,-11665,-58,137,-128,57,-195,-185,-39,35
,104,2018/03/15 17:20:25.95,-2584,11014,-11596,-49,143,-82,106,-192,-188,-47,-12
,105,2018/03/15 17:20:25.97,-2647,10928,-11508,-94,87,-49,146,-181,-195,3,-48
,106,2018/03/15 17:20:25.99,-2737,10771,-11581,-125,65,-47,144,-190,-191,30,-48
,107,2018/03/15 17:20:26.01,-2665,10575,-11779,-85,106,-97,82,-191,-179,-10,7
,108,2018/03/15 17:20:26.03,-2638,10538,-11845,-46,138,-124,47,-184,-171,-46,38
,109,2018/03/15 17:20:26.05,-2657,10522,-11766,-51,116,-76,98,-167,-174,-32,-11
,110,2018/03/15 17:20:26.07,-2747,10491,-11741,-77,94,1,185,-171,-184,-8,-93
,111,2018/03/15 17:20:26.09,-2788,10319,-11937,-63,111,4,174,-174,-170,-24,-89
,112,2018/03/15 17:20:26.11,-2905,10118,-11923,-35,138,-68,97,-173,-165,-51,-14
,113,2018/03/15 17:20:26.13,-3081,9954,-11926,4,179,-80,96,-175,-176,-91,-8
,114,2018/03/15 17:20:26.15,-3038,9985,-11963,-11,167,-17,162,-178,-179,-78,-72
,115,2018/03/15 17:20:26.17,-3126,10222,-11816,-58,110,8,187,-168,-179,-26,-97
,116,2018/03/15 17:20:26.19,-3092,10328,-12368,-79,88,-16,139,-167,-155,-4,-61
,117,2018/03/15 17:20:26.21,-3248,10134,-12939,-18,149,-59,102,-167,-161,-65,-21
,118,2018/03/15 17:20:26.23,-3414,10047,-12779,32,192,-40,116,-160,-156,-112,-38
,119,2018/03/15 17:20:26.25,-3585,9996,-12953,1,170,5,189,-169,-184,-85,-97
,120,2018/03/15 17:20:26.27,-3881,10058,-12709,-48,128,32,200,-176,-168,-40,-116
,121,2018/03/15 17:20:26.29,-4228,10123,-12510,-46,111,-12,148,-157,-160,-32,-68
,122,2018/03/15 17:20:26.31,-4406,9781,-12646,-1,169,-79,79,-170,-158,-84,0
,123,2018/03/15 17:20:26.33,-4592,9476,-13073,5,156,-72,65,-151,-137,-80,3
,124,2018/03/15 17:20:26.35,-4703,9064,-13237,-41,90,-25,110,-131,-135,-24,-42
,125,2018/03/15 17:20:26.37,-5121,8721,-13296,-88,24,-1,100,-112,-101,32,-49
,126,2018/03/15 17:20:26.39,-5335,8610,-13422,-66,42,-48,57,-108,-105,12,-4
,127,2018/03/15 17:20:26.41,-5429,8362,-13548,-10,99,-90,6,-109,-96,-44,42
,128,2018/03/15 17:20:26.43,-5397,8389,-13087,-7,90,-69,34,-97,-103,-41,17
,129,2018/03/15 17:20:26.45,-5435,8053,-13215,-62,35,-23,79,-97,-102,13,-28
,130,2018/03/15 17:20:26.47,-5214,7715,-13281,-102,-17,-15,69,-85,-84,59,-27
,131,2018/03/15 17:20:26.49,-4801,7508,-13464,-67,26,-69,25,-93,-94,20,22
,132,2018/03/15 17:20:26.51,-4447,7251,-13766,-20,86,-107,-8,-106,-99,-33,57
,133,2018/03/15 17:20:26.53,-4168,6907,-13812,-36,71,-88,20,-107,-108,-17,34
,134,2018/03/15 17:20:26.55,-4020,6562,-13762,-97,3,-39,78,-100,-117,47,-19
,135,2018/03/15 17:20:26.57,-3781,6442,-13811,-123,-9,-51,83,-114,-134,66,-16
,136,2018/03/15 17:20:26.59,-3611,6361,-13958,-83,53,-104,24,-136,-128,15,40
,137,2018/03/15 17:20:26.61,-3748,6162,-13696,-41,91,-129,-15,-132,-114,-25,72
,138,2018/03/15 17:20:26.63,-3796,6163,-13726,-66,57,-100,30,-123,-130,4,35
,139,2018/03/15 17:20:26.65,-3663,6444,-12806,-141,-12,-76,70,-129,-146,76,3
,140,2018/03/15 17:20:26.67,-3347,6866,-12505,-156,-20,-89,49,-136,-138,88,20
,141,2018/03/15 17:20:26.69,-3264,7022,-12934,-98,42,-135,1,-140,-136,28,67
,142,2018/03/15 17:20:26.71,-3105,7156,-13590,-60,88,-136,3,-148,-139,-14,66
,143,2018/03/15 17:20:26.73,-3014,7336,-13934,-97,69,-94,88,-166,-182,14,3
,144,2018/03/15 17:20:26.75,-2964,7435,-13991,-147,32,-45,135,-179,-180,57,-45
,145,2018/03/15 17:20:26.77,-2623,7426,-14833,-115,61,-60,125,-176,-185,27,-32
,146,2018/03/15 17:20:26.79,-2416,7275,-15154,-52,135,-108,57,-187,-165,-41,25
,147,2018/03/15 17:20:26.81,-2099,6923,-15176,-21,148,-90,79,-169,-169,-63,5
,148,2018/03/15 17:20:26.83,-2013,6820,-15166,-57,114,-34,132,-171,-166,-28,-49
,149,2018/03/15 17:20:26.85,-1872,6849,-14715,-94,61,1,155,-155,-154,16,-78
,150,2018/03/15 17:20:26.87,-1473,6835,-14360,-71,86,-60,104,-157,-164,-7,-22
,151,2018/03/15 17:20:26.89,-1220,6835,-14750,-37,142,-109,54,-179,-163,-52,27
,152,2018/03/15 17:20:26.91,-1289,6480,-15170,-27,134,-112,59,-161,-171,-53,26
,153,2018/03/15 17:20:26.93,-1217,6500,-15666,-108,60,-68,112,-168,-180,24,-22
,154,2018/03/15 17:20:26.95,-1385,6586,-15347,-131,36,-28,142,-167,-170,47,-57
,155,2018/03/15 17:20:26.97,-1564,6661,-14866,-80,92,-76,103,-172,-179,-6,-13
,156,2018/03/15 17:20:26.99,-1427,6893,-14528,-24,171,-96,86,-195,-182,-73,5
,157,2018/03/15 17:20:27.01,-1481,6960,-14271,-6,176,-58,130,-182,-188,-85,-36
,158,2018/03/15 17:20:27.03,-1647,6965,-14741,-64,132,-8,209,-196,-217,-34,-100
,159,2018/03/15 17:20:27.05,-1826,6842,-14767,-80,125,3,200,-205,-197,-22,-101
,160,2018/03/15 17:20:27.07,-1991,6734,-14748,-31,153,-40,143,-184,-183,-61,-51
,161,2018/03/15 17:20:27.09,-2098,6916,-14351,15,227,-74,136,-212,-210,-121,-31
,162,2018/03/15 17:20:27.11,-2343,7156,-14238,-2,196,-36,151,-198,-187,-97,-57
,163,2018/03/15 17:20:27.13,-2555,7341,-14114,-49,129,9,201,-178,-192,-40,-105
,164,2018/03/15 17:20:27.15,-2889,7469,-13948,-77,116,-24,173,-193,-197,-19,-74
,165,2018/03/15 17:20:27.17,-3045,7643,-14578,-37,160,-82,109,-197,-191,-61,-13
,166,2018/03/15 17:20:27.19,-3277,7847,-14692,-26,184,-104,89,-210,-193,-79,7
,167,2018/03/15 17:20:27.21,-3608,7920,-14553,-45,140,-57,126,-185,-183,-47,-34
,168,2018/03/15 17:20:27.23,-3735,8054,-13972,-101,76,-30,156,-177,-186,12,-63
,169,2018/03/15 17:20:27.25,-3738,8574,-13498,-112,58,-65,106,-170,-171,27,-20
,170,2018/03/15 17:20:27.27,-3808,8980,-13319,-62,120,-109,56,-182,-165,-29,26
,171,2018/03/15 17:20:27.29,-3974,9157,-12958,-40,127,-137,32,-167,-169,-43,52
,172,2018/03/15 17:20:27.31,-4118,9388,-12703,-122,64,-133,60,-186,-193,29,36
,173,2018/03/15 17:20:27.33,-4344,8750,-13133,-222,-44,-188,-8,-178,-180,133,98
,174,2018/03/15 17:20:27.35,-4903,7834,-13681,-296,-112,-297,-97,-184,-200,204,197
,175,2018/03/15 17:20:27.37,-5436,8039,-13286,-279,-71,-317,-131,-208,-186,175,224
,176,2018/03/15 17:20:27.39,-6135,8153,-13125,-205,-31,-228,-79,-174,-149,118,153
,177,2018/03/15 17:20:27.41,-6766,8070,-13072,-185,-48,-151,-13,-137,-138,116,82
,178,2018/03/15 17:20:27.43,-7226,7648,-12864,-224,-100,-147,-16,-124,-131,162,81
,179,2018/03/15 17:20:27.45,-7434,7402,-12884,-194,-73,-184,-72,-121,-112,133,128
,180,2018/03/15 17:20:27.47,-7450,7616,-12659,-150,-23,-207,-82,-127,-125,86,144
,181,2018/03/15 17:20:27.49,-7457,7657,-12804,-109,29,-145,1,-138,-146,40,72
,182,2018/03/15 17:20:27.51,-7403,7693,-12877,-133,6,-67,69,-139,-136,63,-1
,183,2018/03/15 17:20:27.53,-7270,7387,-12728,-126,-5,-1,123,-121,-124,65,-61
,184,2018/03/15 17:20:27.55,-7042,7054,-12389,-18,109,-4,119,-127,-123,-45,-57
,185,2018/03/15 17:20:27.57,-6617,6947,-12456,60,196,-4,126,-136,-130,-128,-61
,186,2018/03/15 17:20:27.59,-6343,6702,-12543,82,221,54,200,-139,-146,-151,-127
,187,2018/03/15 17:20:27.61,-6079,6767,-12482,42,180,117,261,-138,-144,-111,-189
,188,2018/03/15 17:20:27.63,-5928,6544,-13075,34,159,98,241,-125,-143,-96,-169
,189,2018/03/15 17:20:27.65,-5883,6868,-13399,70,215,37,170,-145,-133,-142,-103
,190,2018/03/15 17:20:27.67,-5928,7091,-13687,118,260,45,175,-142,-130,-189,-110
,191,2018/03/15 17:20:27.69,-5914,7088,-14130,107,241,93,235,-134,-142,-174,-164
,192,2018/03/15 17:20:27.71,-6040,7251,-14204,44,177,116,252,-133,-136,-110,-184
,193,2018/03/15 17:20:27.73,-6151,7040,-14278,34,159,80,201,-125,-121,-96,-140
,194,2018/03/15 17:20:27.75,-5990,7347,-13749,58,186,-3,114,-128,-117,-122,-55
,195,2018/03/15 17:20:27.77,-5762,7364,-13739,78,189,5,100,-111,-95,-133,-52
,196,2018/03/15 17:20:27.79,-5574,7061,-14002,47,135,50,148,-88,-98,-91,-99
,197,2018/03/15 17:20:27.81,-5177,6667,-13944,13,113,114,225,-100,-111,-63,-169
,198,2018/03/15 17:20:27.83,-4782,6445,-13737,76,173,111,202,-97,-91,-124,-156
,199,2018/03/15 17:20:27.85,-4589,6501,-13173,60,168,-75,34,-108,-109,-114,20
,200,2018/03/15 17:20:27.87,-4225,6656,-13043,-40,75,-100,8,-115,-108,-17,46
,201,2018/03/15 17:20:27.89,-4068,6852,-12747,-59,50,-32,94,-109,-126,4,-31
,202,2018/03/15 17:20:27.91,-3754,7496,-12756,-86,35,-10,115,-121,-125,25,-52
,203,2018/03/15 17:20:27.93,-3672,8186,-12897,-74,44,-62,45,-118,-107,15,8
,204,2018/03/15 17:20:27.95,-3418,8505,-13073,-30,82,-106,15,-112,-121,-26,45
,205,2018/03/15 17:20:27.97,-3254,8953,-13473,-35,101,-88,42,-136,-130,-33,23
,206,2018/03/15 17:20:27.99,-3154,9226,-13433,-63,58,-32,93,-121,-125,2,-30
,207,2018/03/15 17:20:28.01,-3021,9407,-13415,-88,34,-26,109,-122,-135,27,-41
,208,2018/03/15 17:20:28.03,-2925,9545,-13324,-75,73,-67,77,-148,-144,1,-5
,209,2018/03/15 17:20:28.05,-2862,9820,-12810,-13,134,-72,70,-147,-142,-60,1
,210,2018/03/15 17:20:28.07,-2856,10112,-12449,-1,149,-31,120,-150,-151,-74,-44
,211,2018/03/15 17:20:28.09,-2663,10259,-12145,-28,116,19,160,-144,-141,-44,-89
,212,2018/03/15 17:20:28.11,-2568,10308,-12251,-53,80,7,142,-133,-135,-13,-74
,213,2018/03/15 17:20:28.13,-2523,10443,-12343,-20,111,-37,95,-131,-132,-45,-29
,214,2018/03/15 17:20:28.15,-2556,10799,-12629,11,154,-49,84,-143,-133,-82,-17
,215,2018/03/15 17:20:28.17,-2712,11295,-12465,17,144,-5,118,-127,-123,-80,-56
,216,2018/03/15 17:20:28.19,-2886,11613,-12337,-54,74,-25,122,-128,-147,-10,-48
,217,2018/03/15 17:20:28.21,-3045,12025,-12107,-122,17,-101,44,-139,-145,52,28
,218,2018/03/15 17:20:28.23,-3275,12424,-11822,-166,-5,-245,-85,-161,-160,85,165
,219,2018/03/15 17:20:28.25,-3442,12782,-11621,-223,-58,-365,-207,-165,-158,140,286
,220,2018/03/15 17:20:28.27,-3778,12958,-11552,-410,-246,-480,-310,-164,-170,328,395
,221,2018/03/15 17:20:28.29,-3882,13015,-11407,-545,-375,-459,-270,-170,-189,460,364
,222,2018/03/15 17:20:28.31,-4036,13170,-11336,-496,-312,-433,-258,-184,-175,404,345
,223,2018/03/15 17:20:28.33,-4157,13208,-11217,-412,-247,-442,-288,-165,-154,329,365
,224,2018/03/15 17:20:28.35,-4091,13012,-11211,-341,-174,-345,-180,-167,-165,257,262
,225,2018/03/15 17:20:28.37,-3960,12666,-11375,-279,-109,-216,-41,-170,-175,194,128
,226,2018/03/15 17:20:28.39,-3909,12333,-11681,-233,-71,-118,50,-162,-168,152,34
,227,2018/03/15 17:20:28.41,-3852,12141,-11604,-141,11,-83,62,-152,-145,65,10
,228,2018/03/15 17:20:28.43,-3870,11910,-11526,-44,100,-98,47,-144,-145,-28,25
,229,2018/03/15 17:20:28.45,-3900,11675,-11627,-13,137,-68,81,-150,-149,-62,-6
,230,2018/03/15 17:20:28.47,-3719,11373,-11713,-42,103,5,153,-145,-148,-30,-79
,231,2018/03/15 17:20:28.49,-3813,11285,-11716,-54,78,26,157,-132,-131,-12,-91
,232,2018/03/15 17:20:28.51,-3678,11036,-11753,-20,103,-19,101,-123,-120,-41,-41
,233,2018/03/15 17:20:28.53,-3663,10816,-11767,21,151,-43,76,-130,-119,-86,-16
,234,2018/03/15 17:20:28.55,-3553,10608,-11685,30,153,-15,102,-123,-117,-91,-43
,235,2018/03/15 17:20:28.57,-3374,10702,-11507,-23,93,29,152,-116,-123,-35,-90
,236,2018/03/15 17:20:28.59,-3147,10402,-11891,-40,71,26,135,-111,-109,-15,-80
,237,2018/03/15 17:20:28.61,-3196,9840,-12543,-3,105,-5,99,-108,-104,-51,-47
,238,2018/03/15 17:20:28.63,-3402,9636,-12806,62,169,-12,87,-107,-99,-115,-37
,239,2018/03/15 17:20:28.65,-3570,9518,-12959,37,148,4,121,-111,-117,-92,-62
,240,2018/03/15 17:20:28.67,-3868,8825,-13180,-22,86,43,158,-108,-115,-32,-100
,241,2018/03/15 17:20:28.69,-4440,8421,-13475,-31,80,32,140,-111,-108,-24,-86
,242,2018/03/15 17:20:28.71,-4791,8320,-12835,40,133,12,82,-93,-70,-86,-47
,243,2018/03/15 17:20:28.73,-5140,8657,-12353,84,144,5,40,-60,-35,-114,-22
,244,2018/03/15 17:20:28.75,-5319,8476,-12100,44,75,39,68,-31,-29,-59,-53
,245,2018/03/15 17:20:28.77,-5570,7748,-12767,-1,19,62,92,-20,-30,-9,-77
,246,2018/03/15 17:20:28.79,-5492,6899,-13410,-23,4,-12,5,-27,-17,9,3
,247,2018/03/15 17:20:28.81,-5233,6675,-13279,0,21,-54,-32,-21,-22,-10,43
,248,2018/03/15 17:20:28.83,-4884,6667,-12637,43,71,-8,13,-28,-21,-57,-2
,249,2018/03/15 17:20:28.85,-4384,6630,-13166,30,59,14,58,-29,-44,-44,-36
,250,2018/03/15 17:20:28.87,-4005,6631,-13500,-90,-55,-34,7,-35,-41,72,13
,251,2018/03/15 17:20:28.89,-3654,6462,-14449,-110,-59,-88,-34,-51,-54,84,61
,252,2018/03/15 17:20:28.91,-3327,6139,-14310,-51,17,-121,-60,-68,-61,17,90
,253,2018/03/15 17:20:28.93,-2929,6079,-14097,-53,25,-110,-25,-78,-85,14,67
,254,2018/03/15 17:20:28.95,-2710,6208,-14012,-75,17,-15,97,-92,-112,29,-41
,255,2018/03/15 17:20:28.97,-2955,6594,-14340,-72,36,28,149,-108,-121,18,-88
,256,2018/03/15 17:20:28.99,-3016,7399,-14248,11,135,2,133,-124,-131,-73,-67
,257,2018/03/15 17:20:29.01,-3086,7887,-14548,24,176,-58,76,-152,-134,-100,-9
,258,2018/03/15 17:20:29.03,-3341,7982,-14491,26,146,-6,96,-120,-102,-86,-45
,259,2018/03/15 17:20:29.05,-3448,7753,-14092,-10,72,28,116,-82,-88,-31,-72
,260,2018/03/15 17:20:29.07,-3545,7503,-14460,-71,8,-15,75,-79,-90,31,-30
,261,2018/03/15 17:20:29.09,-3459,7171,-14360,-51,52,-59,44,-103,-103,0,7
,262,2018/03/15 17:20:29.11,-3440,6601,-14585,-1,104,-80,9,-105,-89,-51,35
,263,2018/03/15 17:20:29.13,-3532,6192,-13995,-10,75,-31,57,-85,-88,-32,-13
,264,2018/03/15 17:20:29.15,-3431,5987,-13297,-48,26,21,89,-74,-68,11,-55
,265,2018/03/15 17:20:29.17,-3344,5816,-13024,-54,-7,26,63,-47,-37,30,-44
,266,2018/03/15 17:20:29.19,-3384,6174,-12934,26,67,2,41,-41,-39,-46,-21
,267,2018/03/15 17:20:29.21,-3452,6984,-13030,57,111,-38,23,-54,-61,-84,7
,268,2018/03/15 17:20:29.23,-3633,7561,-13349,-23,57,-44,56,-80,-100,-17,-6
,269,2018/03/15 17:20:29.25,-4008,8022,-13449,-67,27,22,115,-94,-93,20,-68
,270,2018/03/15 17:20:29.27,-4165,9038,-13018,-37,49,9,104,-86,-95,-6,-56
,271,2018/03/15 17:20:29.29,-4473,9436,-12641,-3,106,-56,50,-109,-106,-51,3
,272,2018/03/15 17:20:29.31,-4639,9430,-12885,24,150,-39,94,-126,-133,-87,-27
,273,2018/03/15 17:20:29.33,-4789,9807,-12413,2,136,9,150,-134,-141,-69,-79
,274,2018/03/15 17:20:29.35,-5185,9962,-12279,-55,82,8,155,-137,-147,-13,-81
,275,2018/03/15 17:20:29.37,-5365,10493,-11953,-41,106,10,151,-147,-141,-32,-80
,276,2018/03/15 17:20:29.39,-5513,10807,-11707,40,178,-32,98,-138,-130,-109,-33
,277,2018/03/15 17:20:29.41,-5473,11288,-10822,35,182,-31,129,-147,-160,-108,-49
,278,2018/03/15 17:20:29.43,-5375,11697,-10436,-10,151,31,187,-161,-156,-70,-109
,279,2018/03/15 17:20:29.45,-5225,11757,-10602,-37,113,22,183,-150,-161,-38,-102
,280,2018/03/15 17:20:29.47,-5264,11478,-11098,-24,126,4,143,-150,-139,-51,-73
,281,2018/03/15 17:20:29.49,-5107,11487,-10908,39,184,-27,116,-145,-143,-111,-44
,282,2018/03/15 17:20:29.51,-5137,11555,-10926,44,200,-4,149,-156,-153,-122,-72
,283,2018/03/15 17:20:29.53,-5028,11925,-10966,-4,135,18,166,-139,-148,-65,-92
,284,2018/03/15 17:20:29.55,-5133,12038,-10976,-60,79,-7,129,-139,-136,-9,-61
,285,2018/03/15 17:20:29.57,-5159,12096,-11054,-71,68,-99,43,-139,-142,1,28
,286,2018/03/15 17:20:29.59,-5155,12053,-10795,-72,91,-158,5,-163,-163,-9,76
,287,2018/03/15 17:20:29.61,-5140,11887,-10883,-102,72,-130,41,-174,-171,15,44
,288,2018/03/15 17:20:29.63,-5188,11725,-10774,-117,52,-47,123,-169,-170,32,-38
,289,2018/03/15 17:20:29.65,-5038,11539,-10760,-91,64,-26,131,-155,-157,13,-52
,290,2018/03/15 17:20:29.67,-4887,11680,-10718,-37,123,-49,105,-160,-154,-43,-28
,291,2018/03/15 17:20:29.69,-4686,11785,-10765,12,182,-45,120,-170,-165,-97,-37
,292,2018/03/15 17:20:29.71,-4455,11825,-10879,10,173,-7,164,-163,-171,-91,-78
,293,2018/03/15 17:20:29.73,-4223,11935,-11150,-34,137,32,202,-171,-170,-51,-117
,294,2018/03/15 17:20:29.75,-4146,11772,-11058,-33,126,7,170,-159,-163,-46,-88
,295,2018/03/15 17:20:29.77,-4099,11637,-10876,2,161,-27,115,-159,-142,-81,-44
,296,2018/03/15 17:20:29.79,-3976,11534,-10669,32,174,-40,100,-142,-140,-103,-30
,297,2018/03/15 17:20:29.81,-3805,11573,-10452,-4,136,-1,145,-140,-146,-66,-72
,298,2018/03/15 17:20:29.83,-3703,11694,-10375,-48,81,5,138,-129,-133,-16,-71
,299,2018/03/15 17:20:29.85,-3722,11827,-10831,-51,87,-10,128,-138,-138,-18,-59
,300,2018/03/15 17:20:29.87,-3968,12004,-11364,1,139,-46,88,-138,-134,-70,-21
,301,2018/03/15 17:20:29.89,-4261,12126,-11540,10,158,-45,101,-148,-146,-84,-28
,302,2018/03/15 17:20:29.91,-4349,12596,-10818,-21,124,-7,152,-145,-159,-51,-72
,303,2018/03/15 17:20:29.93,-4258,13111,-10503,-49,106,18,178,-155,-160,-28,-98
,304,2018/03/15 17:20:29.95,-4339,13720,-10782,-33,126,-17,124,-159,-141,-46,-53
,305,2018/03/15 17:20:29.97,-4287,13884,-11219,12,139,-31,79,-127,-110,-75,-24
,306,2018/03/15 17:20:29.99,-4363,13739,-11558,34,153,-1,128,-119,-129,-93,-63
,307,2018/03/15 17:20:30.01,-4170,13745,-11361,-8,126,20,160,-134,-140,-59,-90
,308,2018/03/15 17:20:30.03,-4045,13076,-11694,-47,75,26,152,-122,-126,-14,-89
,309,2018/03/15 17:20:30.05,-4100,12328,-11665,-17,119,-29,115,-136,-144,-51,-43
,310,2018/03/15 17:20:30.07,-3864,11780,-11245,17,168,-48,95,-151,-143,-92,-23
,311,2018/03/15 17:20:30.09,-3747,11130,-11397,9,149,-20,117,-140,-137,-79,-48
,312,2018/03/15 17:20:30.11,-3438,10956,-11325,-28,105,9,158,-133,-149,-38,-83
,313,2018/03/15 17:20:30.13,-3317,10920,-11518,-89,76,-58,118,-165,-176,6,-30
,314,2018/03/15 17:20:30.15,-3452,10650,-11859,-74,87,-77,64,-161,-141,-6,6
,315,2018/03/15 17:20:30.17,-3502,10145,-11916,-11,130,-74,61,-141,-135,-59,6
,316,2018/03/15 17:20:30.19,-3386,9636,-11618,-26,108,-37,94,-134,-131,-41,-28
,317,2018/03/15 17:20:30.21,-3260,9176,-11582,-62,63,-5,125,-125,-130,0,-60
,318,2018/03/15 17:20:30.23,-2995,9219,-11442,-84,27,-52,50,-111,-102,28,1
,319,2018/03/15 17:20:30.25,-2783,9208,-11347,-56,48,-91,8,-104,-99,4,41
,320,2018/03/15 17:20:30.27,-2509,9480,-11442,-21,87,-81,18,-108,-99,-33,31
,321,2018/03/15 17:20:30.29,-2485,9361,-12037,-38,61,-21,82,-99,-103,-11,-30
,322,2018/03/15 17:20:30.31,-2784,9091,-12748,-49,47,31,129,-96,-98,1,-80
,323,2018/03/15 17:20:30.33,-3058,9074,-12972,-32,57,4,97,-89,-93,-12,-50
,324,2018/03/15 17:20:30.35,-3334,9414,-12573,26,130,-34,64,-104,-98,-78,-15
,325,2018/03/15 17:20:30.37,-3598,9920,-12073,19,118,-51,48,-99,-99,-68,1
,326,2018/03/15 17:20:30.39,-3864,10388,-12089,-32,66,-11,88,-98,-99,-17,-38
,327,2018/03/15 17:20:30.41,-4288,10718,-12604,-53,37,26,109,-90,-83,8,-67
,328,2018/03/15 17:20:30.43,-4668,10737,-12992,-25,58,-15,71,-83,-86,-16,-28
,329,2018/03/15 17:20:30.45,-4928,10558,-13372,16,116,-48,40,-100,-88,-66,4
,330,2018/03/15 17:20:30.47,-4873,10055,-13713,11,104,-47,54,-93,-101,-57,-3
,331,2018/03/15 17:20:30.49,-4851,9229,-14229,-54,52,-26,90,-106,-116,1,-32
,332,2018/03/15 17:20:30.51,-4762,8327,-14408,-112,-3,-66,37,-109,-103,57,14
,333,2018/03/15 17:20:30.53,-4703,7298,-14511,-153,-53,-225,-130,-100,-95,103,177
,334,2018/03/15 17:20:30.55,-4689,6493,-14376,-287,-183,-486,-386,-104,-100,235,436
,335,2018/03/15 17:20:30.57,-4834,6207,-13257,-544,-446,-544,-452,-98,-92,495,498
,336,2018/03/15 17:20:30.59,-5182,6052,-11271,-415,-338,-187,-113,-77,-74,376,150
,337,2018/03/15 17:20:30.61,-5291,6061,-10975,-104,-46,57,117,-58,-60,75,-87
,338,2018/03/15 17:20:30.63,-5312,6243,-11618,91,167,99,182,-76,-83,-129,-140
,339,2018/03/15 17:20:30.65,-5166,6286,-13062,190,284,125,212,-94,-87,-237,-168
,340,2018/03/15 17:20:30.67,-5033,6493,-14371,192,285,178,279,-93,-101,-238,-228
,341,2018/03/15 17:20:30.69,-4979,6738,-14769,124,220,174,283,-96,-109,-172,-228
,342,2018/03/15 17:20:30.71,-4908,6996,-14204,62,171,80,194,-109,-114,-116,-137
,343,2018/03/15 17:20:30.73,-4617,7302,-13621,51,172,-9,106,-121,-115,-111,-48
,344,2018/03/15 17:20:30.75,-4371,7678,-13095,72,194,7,123,-122,-116,-133,-65
,345,2018/03/15 17:20:30.77,-4096,7777,-12390,59,181,74,200,-122,-126,-120,-137
,346,2018/03/15 17:20:30.79,-3833,7532,-12819,23,136,98,223,-113,-125,-79,-160
,347,2018/03/15 17:20:30.81,-3665,7629,-13175,14,140,53,182,-126,-129,-77,-117
,348,2018/03/15 17:20:30.83,-3645,7826,-13249,54,188,-6,121,-134,-127,-121,-57
,349,2018/03/15 17:20:30.85,-4108,8020,-13907,78,205,8,138,-127,-130,-141,-73
,350,2018/03/15 17:20:30.87,-4335,8302,-14375,39,171,68,215,-132,-147,-105,-141
,351,2018/03/15 17:20:30.89,-4366,8997,-14308,-6,144,64,230,-150,-166,-69,-147
,352,2018/03/15 17:20:30.91,-4397,9613,-13946,-8,148,26,172,-156,-146,-70,-99
,353,2018/03/15 17:20:30.93,-4270,9812,-13943,56,208,-25,117,-152,-142,-132,-46
,354,2018/03/15 17:20:30.95,-4226,9682,-13700,58,194,3,136,-136,-133,-126,-69
,355,2018/03/15 17:20:30.97,-4070,9349,-13268,5,133,32,180,-128,-148,-69,-106
,356,2018/03/15 17:20:30.99,-3838,8963,-13103,-53,96,22,184,-149,-162,-21,-103
,357,2018/03/15 17:20:31.01,-3744,8519,-12878,-36,127,-39,115,-163,-154,-45,-38
,358,2018/03/15 17:20:31.03,-3786,8101,-12787,7,170,-68,88,-163,-156,-88,-10
,359,2018/03/15 17:20:31.05,-3865,7889,-12504,9,172,-34,137,-163,-171,-90,-51
,360,2018/03/15 17:20:31.07,-3858,7637,-12257,-41,118,20,188,-159,-168,-38,-104
,361,2018/03/15 17:20:31.09,-3854,7623,-12858,-52,118,29,194,-170,-165,-33,-111
,362,2018/03/15 17:20:31.11,-3898,7794,-12939,-2,166,-16,134,-168,-150,-82,-59
,363,2018/03/15 17:20:31.13,-4022,7937,-12846,46,199,-38,111,-153,-149,-122,-36
,364,2018/03/15 17:20:31.15,-4124,8302,-12725,25,175,-2,152,-150,-154,-100,-75
,365,2018/03/15 17:20:31.17,-4175,8801,-12691,-42,106,19,172,-148,-153,-32,-95
,366,2018/03/15 17:20:31.19,-4058,9191,-12728,-60,82,2,144,-142,-142,-11,-73
,367,2018/03/15 17:20:31.21,-3880,9252,-12792,-7,151,-46,108,-158,-154,-72,-31
,368,2018/03/15 17:20:31.23,-3821,9484,-13062,34,188,-55,85,-154,-140,-111,-15
,369,2018/03/15 17:20:31.25,-3644,9780,-12948,-11,130,-10,130,-141,-140,-59,-60
,370,2018/03/15 17:20:31.27,-3465,9767,-12978,-62,77,8,159,-139,-151,-7,-83
,371,2018/03/15 17:20:31.29,-3303,9722,-12798,-69,82,-35,118,-151,-153,-6,-41
,372,2018/03/15 17:20:31.31,-3301,10017,-12895,-32,125,-84,68,-157,-152,-46,8
,373,2018/03/15 17:20:31.33,-3078,9741,-12781,-6,153,-72,83,-159,-155,-73,-5
,374,2018/03/15 17:20:31.35,-3038,9664,-12691,-31,123,0,165,-154,-165,-46,-82
,375,2018/03/15 17:20:31.37,-2948,9896,-12537,-39,119,42,202,-158,-160,-40,-122
,376,2018/03/15 17:20:31.39,-2915,9943,-12514,-34,117,-14,121,-151,-135,-41,-53
,377,2018/03/15 17:20:31.41,-2987,10000,-12355,6,143,-70,73,-137,-143,-74,-1
,378,2018/03/15 17:20:31.43,-2919,9867,-12404,-4,152,-64,90,-156,-154,-74,-13
,379,2018/03/15 17:20:31.45,-2881,9899,-12395,-54,90,-26,120,-144,-146,-18,-47
,380,2018/03/15 17:20:31.47,-2927,10105,-12432,-102,39,-38,103,-141,-141,31,-32
,381,2018/03/15 17:20:31.49,-2915,10280,-12727,-94,43,-96,40,-137,-136,25,28
,382,2018/03/15 17:20:31.51,-2840,10592,-12873,-55,88,-114,17,-143,-131,-16,48
,383,2018/03/15 17:20:31.53,-2807,10567,-12758,-42,88,-87,47,-130,-134,-23,20
,384,2018/03/15 17:20:31.55,-2685,10731,-12686,-96,44,-51,100,-140,-151,26,-24
,385,2018/03/15 17:20:31.57,-2608,10939,-12568,-114,28,-50,96,-142,-146,43,-23
,386,2018/03/15 17:20:31.59,-2583,11042,-12514,-82,65,-82,54,-147,-136,8,14
,387,2018/03/15 17:20:31.61,-2444,10920,-12148,-34,109,-107,20,-143,-127,-37,43
,388,2018/03/15 17:20:31.63,-2358,10889,-12322,-48,76,-71,59,-124,-130,-14,6
,389,2018/03/15 17:20:31.65,-2309,10968,-12460,-97,24,-24,95,-121,-119,36,-35
,390,2018/03/15 17:20:31.67,-2256,10678,-12396,-86,23,-32,89,-109,-121,31,-28
,391,2018/03/15 17:20:31.69,-2060,10354,-12167,-40,86,-71,46,-126,-117,-23,12
,392,2018/03/15 17:20:31.71,-1959,10393,-12231,-9,106,-85,20,-115,-105,-48,32
,393,2018/03/15 17:20:31.73,-1948,10314,-12719,-31,68,-37,71,-99,-108,-18,-17
,394,2018/03/15 17:20:31.75,-1998,10459,-12885,-78,37,-22,127,-115,-149,20,-52
,395,2018/03/15 17:20:31.77,-1909,10617,-13072,-84,63,-27,108,-147,-135,10,-40
,396,2018/03/15 17:20:31.79,-2020,10523,-12903,-22,113,-65,60,-135,-125,-45,2
,397,2018/03/15 17:20:31.81,-2037,10454,-12804,4,132,-67,59,-128,-126,-68,4
,398,2018/03/15 17:20:31.83,-2059,10409,-12621,-32,86,-27,96,-118,-123,-27,-34
,399,2018/03/15 17:20:31.85,-2068,10261,-12473,-83,33,-24,105,-116,-129,25,-40
,400,2018/03/15 17:20:31.87,-2088,10224,-12663,-87,50,-51,92,-137,-143,18,-20
,401,2018/03/15 17:20:31.89,-2146,9958,-12704,-25,123,-74,64,-148,-138,-49,5
,402,2018/03/15 17:20:31.91,-2137,9934,-12769,0,141,-59,82,-141,-141,-70,-11
,403,2018/03/15 17:20:31.93,-2134,9958,-12755,-44,98,-22,133,-142,-155,-27,-55
,404,2018/03/15 17:20:31.95,-2173,9946,-12687,-80,63,-10,133,-143,-143,8,-61
,405,2018/03/15 17:20:31.97,-2043,9945,-12490,-64,78,-56,84,-142,-140,-7,-14
,406,2018/03/15 17:20:31.99,-1967,9901,-12430,-22,120,-85,47,-142,-132,-49,19
,407,2018/03/15 17:20:32.01,-1820,9970,-12187,-10,122,-39,98,-132,-137,-56,-29
,408,2018/03/15 17:20:32.03,-1803,10062,-12281,-24,127,23,194,-151,-171,-51,-108
,409,2018/03/15 17:20:32.05,-1722,10134,-12584,-36,135,22,191,-171,-169,-49,-106
,410,2018/03/15 17:20:32.07,-1748,10409,-12635,-15,153,-22,134,-168,-156,-69,-56
,411,2018/03/15 17:20:32.09,-1622,10480,-12543,12,173,-57,87,-161,-144,-92,-15
,412,2018/03/15 17:20:32.11,-1513,10597,-12674,1,140,-21,121,-139,-142,-70,-50
,413,2018/03/15 17:20:32.13,-1460,10671,-12635,-36,101,17,154,-137,-137,-32,-85
,414,2018/03/15 17:20:32.15,-1533,10796,-12576,-53,73,1,134,-126,-133,-10,-67
,415,2018/03/15 17:20:32.17,-1531,10898,-12519,-20,120,-41,92,-140,-133,-50,-25
,416,2018/03/15 17:20:32.19,-1548,10786,-12373,18,165,-47,95,-147,-142,-91,-24
,417,2018/03/15 17:20:32.21,-1533,10811,-12340,2,140,-12,125,-138,-137,-71,-56
,418,2018/03/15 17:20:32.23,-1619,10714,-12552,-35,91,32,159,-126,-127,-28,-95
,419,2018/03/15 17:20:32.25,-1564,10683,-12560,-40,93,-3,139,-133,-142,-26,-68
,420,2018/03/15 17:20:32.27,-1663,10711,-12281,-8,140,-44,93,-148,-137,-66,-24
,421,2018/03/15 17:20:32.29,-1642,10544,-12162,24,155,-37,76,-131,-113,-89,-19
,422,2018/03/15 17:20:32.31,-1552,10421,-12066,8,97,3,96,-89,-93,-52,-49
,423,2018/03/15 17:20:32.33,-1469,10230,-11843,-49,41,17,108,-90,-91,4,-62
,424,2018/03/15 17:20:32.35,-1387,10077,-11921,-43,46,-11,85,-89,-96,-1,-37
,425,2018/03/15 17:20:32.37,-1373,10108,-12143,1,115,-56,61,-114,-117,-58,-2
,426,2018/03/15 17:20:32.39,-1284,10335,-12049,5,128,-51,76,-123,-127,-66,-12
,427,2018/03/15 17:20:32.41,-1250,10700,-12149,-20,104,2,124,-124,-122,-42,-63
,428,2018/03/15 17:20:32.43,-1224,10828,-12129,-50,64,13,135,-114,-122,-7,-74
,429,2018/03/15 17:20:32.45,-1206,10918,-12269,-47,71,-25,87,-118,-112,-12,-31
,430,2018/03/15 17:20:32.47,-1272,11026,-12218,-6,112,-69,44,-118,-113,-53,12
,431,2018/03/15 17:20:32.49,-1251,11142,-12035,-1,115,-60,59,-116,-119,-57,0
,432,2018/03/15 17:20:32.51,-1275,11178,-11911,-62,51,-43,83,-113,-126,5,-20
,433,2018/03/15 17:20:32.53,-1339,11354,-11825,-105,21,-40,99,-126,-139,42,-29
,434,2018/03/15 17:20:32.55,-1439,11231,-11840,-66,74,-47,85,-140,-132,-4,-19
,435,2018/03/15 17:20:32.57,-1352,11125,-11853,8,151,-54,79,-143,-133,-79,-12
,436,2018/03/15 17:20:32.59,-1500,11095,-11904,-1,129,-31,88,-130,-119,-64,-28
,437,2018/03/15 17:20:32.61,-1570,11119,-11843,-32,71,5,125,-103,-120,-19,-65
,438,2018/03/15 17:20:32.63,-1630,11297,-11895,-73,57,-18,115,-130,-133,8,-48
,439,2018/03/15 17:20:32.65,-1551,11440,-11931,-40,104,-48,92,-144,-140,-32,-22
,440,2018/03/15 17:20:32.67,-1683,11643,-11997,8,146,-66,62,-138,-128,-77,2
,441,2018/03/15 17:20:32.69,-1644,11666,-11989,-21,112,-31,104,-133,-135,-45,-36
,442,2018/03/15 17:20:32.71,-1635,11787,-12004,-49,75,4,138,-124,-134,-13,-71
,443,2018/03/15 17:20:32.73,-1611,11800,-11968,-65,78,-19,133,-143,-152,-6,-57
,444,2018/03/15 17:20:32.75,-1662,11863,-11990,-26,126,-62,76,-152,-138,-50,-7
,445,2018/03/15 17:20:32.77,-1723,11965,-11989,-20,128,-94,60,-148,-154,-54,17
,446,2018/03/15 17:20:32.79,-1767,11502,-11958,-59,92,-69,91,-151,-160,-16,-11
,447,2018/03/15 17:20:32.81,-1672,11555,-11623,-110,49,-49,122,-159,-171,30,-36
,448,2018/03/15 17:20:32.83,-1736,11258,-11706,-106,59,-61,94,-165,-155,23,-16
,449,2018/03/15 17:20:32.85,-1701,11061,-11675,-50,109,-93,66,-159,-159,-29,13
,450,2018/03/15 17:20:32.87,-1694,10962,-11669,-24,147,-89,68,-171,-157,-61,10
,451,2018/03/15 17:20:32.89,-1656,10709,-11643,-56,89,-28,117,-145,-145,-16,-44
,452,2018/03/15 17:20:32.91,-1604,10722,-11908,-75,66,-6,141,-141,-147,4,-67
,453,2018/03/15 17:20:32.93,-1598,10789,-11523,-60,86,-41,99,-146,-140,-13,-29
,454,2018/03/15 17:20:32.95,-1695,10711,-11179,-20,123,-80,62,-143,-142,-51,9
,455,2018/03/15 17:20:32.97,-1623,10769,-11176,-26,116,-82,47,-142,-129,-45,17
,456,2018/03/15 17:20:32.99,-1829,11286,-11309,-84,43,-71,74,-127,-145,20,-1
,457,2018/03/15 17:20:33.01,-1915,11329,-11133,-126,17,-47,96,-143,-143,54,-24
,458,2018/03/15 17:20:33.03,-1878,11324,-11227,-70,65,-51,69,-135,-120,2,-9
,459,2018/03/15 17:20:33.05,-1898,11457,-11499,-1,114,-50,49,-115,-99,-56,0
,460,2018/03/15 17:20:33.07,-1881,11568,-11447,16,106,-11,78,-90,-89,-61,-33
,461,2018/03/15 17:20:33.09,-1835,11623,-11759,-19,75,6,110,-94,-104,-28,-58
,462,2018/03/15 17:20:33.11,-1855,11806,-11599,-65,20,-20,73,-85,-93,22,-26
,463,2018/03/15 17:20:33.13,-1928,11825,-11564,-65,48,-81,29,-113,-110,8,26
,464,2018/03/15 17:20:33.15,-1877,11563,-11815,-34,75,-100,8,-109,-108,-20,46
,465,2018/03/15 17:20:33.17,-1862,11660,-11529,-51,67,-68,50,-118,-118,-8,9
,466,2018/03/15 17:20:33.19,-1903,11585,-11528,-82,33,-25,100,-115,-125,24,-37
,467,2018/03/15 17:20:33.21,-1876,11561,-11479,-80,39,-39,92,-119,-131,20,-26
,468,2018/03/15 17:20:33.23,-1930,11460,-11556,-49,85,-70,57,-134,-127,-18,6
,469,2018/03/15 17:20:33.25,-1943,11598,-11660,-14,114,-75,52,-128,-127,-50,11
,470,2018/03/15 17:20:33.27,-2038,11446,-11412,-30,106,-24,118,-136,-142,-38,-47
,471,2018/03/15 17:20:33.29,-2088,11596,-11404,-46,79,11,151,-125,-140,-16,-81
,472,2018/03/15 17:20:33.31,-2098,11609,-11492,-51,95,-31,117,-146,-148,-22,-43
,473,2018/03/15 17:20:33.33,-2182,11588,-11443,-40,94,-88,36,-134,-124,-27,26
,474,2018/03/15 17:20:33.35,-2212,11609,-11338,-24,116,-83,60,-140,-143,-46,11
,475,2018/03/15 17:20:33.37,-2159,11565,-11436,-49,85,-32,94,-134,-126,-18,-31
,476,2018/03/15 17:20:33.39,-2245,11485,-11392,-87,34,-31,94,-121,-125,26,-31
,477,2018/03/15 17:20:33.41,-2274,11471,-11335,-72,53,-43,84,-125,-127,9,-20
,478,2018/03/15 17:20:33.43,-2239,11323,-11351,-18,118,-81,46,-136,-127,-50,17
,479,2018/03/15 17:20:33.45,-2317,11301,-11446,-28,101,-75,49,-129,-124,-36,13
,480,2018/03/15 17:20:33.47,-2363,11225,-11391,-67,53,-48,82,-120,-130,7,-17
,481,2018/03/15 17:20:33.49,-2322,11252,-11291,-119,9,-68,63,-128,-131,55,2
,482,2018/03/15 17:20:33.51,-2256,11255,-11265,-137,-11,-158,-37,-126,-121,74,97
,483,2018/03/15 17:20:33.53,-2297,11271,-11275,-133,2,-185,-57,-135,-128,65,121
,484,2018/03/15 17:20:33.55,-2313,11355,-11355,-112,16,-139,-11,-128,-128,48,75
,485,2018/03/15 17:20:33.57,-2268,11478,-11457,-145,-18,-106,28,-127,-134,81,39
,486,2018/03/15 17:20:33.59,-2315,11622,-11457,-165,-41,-114,16,-124,-130,103,49
,487,2018/03/15 17:20:33.61,-2270,11642,-11385,-158,-27,-181,-54,-131,-127,92,117
,488,2018/03/15 17:20:33.63,-2349,11811,-11243,-145,-13,-209,-79,-132,-130,79,144
,489,2018/03/15 17:20:33.65,-2400,11907,-11170,-160,-13,-164,-2,-147,-162,86,83
,490,2018/03/15 17:20:33.67,-2553,11918,-11122,-156,2,-92,71,-158,-163,77,10
,491,2018/03/15 17:20:33.69,-2463,11923,-11156,-147,23,-93,67,-170,-160,62,13
,492,2018/03/15 17:20:33.71,-2551,11937,-11104,-94,58,-98,43,-152,-141,18,27
,493,2018/03/15 17:20:33.73,-2477,11879,-11116,-48,106,-109,39,-154,-148,-29,35
,494,2018/03/15 17:20:33.75,-2528,11709,-11107,-59,79,-53,87,-138,-140,-10,-17
,495,2018/03/15 17:20:33.77,-2480,11756,-11096,-82,57,-26,118,-139,-144,12,-46
,496,2018/03/15 17:20:33.79,-2416,11620,-11152,-79,64,-32,113,-143,-145,7,-40
,497,2018/03/15 17:20:33.81,-2376,11582,-11230,-31,110,-68,59,-141,-127,-39,4
,498,2018/03/15 17:20:33.83,-2341,11557,-11242,-8,124,-54,76,-132,-130,-58,-11
,499,2018/03/15 17:20:33.85,-2257,11496,-11183,-11,119,2,138,-130,-136,-54,-70
,500,2018/03/15 17:20:33.87,-2291,11470,-11138,-48,88,12,154,-136,-142,-20,-83
,501,2018/03/15 17:20:33.89,-2289,11547,-11365,-36,105,-12,130,-141,-142,-34,-59
,502,2018/03/15 17:20:33.91,-2187,11485,-11369,-1,146,-50,89,-147,-139,-72,-19
,503,2018/03/15 17:20:33.93,-2209,11596,-11373,10,153,-40,104,-143,-144,-81,-32
,504,2018/03/15 17:20:33.95,-2105,11637,-11361,-19,123,6,151,-142,-145,-52,-78
,505,2018/03/15 17:20:33.97,-2132,11532,-11382,-41,95,18,159,-136,-141,-27,-88
,506,2018/03/15 17:20:33.99,-2099,11538,-11314,-26,117,-17,125,-143,-142,-45,-54
,507,2018/03/15 17:20:34.01,-2041,11475,-11355,16,163,-35,110,-147,-145,-89,-37
,508,2018/03/15 17:20:34.03,-1987,11456,-11428,22,173,-16,133,-151,-149,-97,-58
,509,2018/03/15 17:20:34.05,-1966,11375,-11411,-8,133,24,174,-141,-150,-62,-99
,510,2018/03/15 17:20:34.07,-1935,11415,-11450,-36,110,20,162,-146,-142,-37,-91
,511,2018/03/15 17:20:34.09,-1979,11486,-11472,-12,127,-23,114,-139,-137,-57,-45
,512,2018/03/15 17:20:34.11,-1892,11359,-11462,22,155,-41,89,-133,-130,-88,-24
,513,2018/03/15 17:20:34.13,-1862,11370,-11509,19,152,-15,125,-133,-140,-85,-55
,514,2018/03/15 17:20:34.15,-1842,11230,-11496,-35,102,8,147,-137,-139,-33,-77
,515,2018/03/15 17:20:34.17,-1874,11238,-11523,-45,91,2,141,-136,-139,-23,-71
,516,2018/03/15 17:20:34.19,-1781,11223,-11603,-20,123,-46,94,-143,-140,-51,-24
,517,2018/03/15 17:20:34.21,-1841,11245,-11594,0,151,-62,90,-151,-152,-75,-14
,518,2018/03/15 17:20:34.23,-1831,11244,-11696,-21,134,-33,124,-155,-157,-56,-45
,519,2018/03/15 17:20:34.25,-1778,11223,-11644,-56,87,0,143,-143,-143,-15,-71
,520,2018/03/15 17:20:34.27,-1838,11169,-11647,-57,73,-18,107,-130,-125,-8,-44
,521,2018/03/15 17:20:34.29,-1847,11009,-11627,-24,108,-62,80,-132,-142,-42,-9
,522,2018/03/15 17:20:34.31,-1933,11019,-11650,0,151,-54,90,-151,-144,-75,-18
,523,2018/03/15 17:20:34.33,-1896,10968,-11700,-34,120,-51,120,-154,-171,-43,-34
,524,2018/03/15 17:20:34.35,-1942,10926,-11609,-106,61,-50,124,-167,-174,22,-37
,525,2018/03/15 17:20:34.37,-1919,10901,-11669,-96,71,-63,96,-167,-159,12,-16
,526,2018/03/15 17:20:34.39,-1939,10951,-11727,-48,112,-86,65,-160,-151,-32,10
,527,2018/03/15 17:20:34.41,-1813,10874,-11788,-15,137,-57,88,-152,-145,-61,-15
,528,2018/03/15 17:20:34.43,-1765,10955,-11824,-34,104,-15,125,-138,-140,-35,-55
,529,2018/03/15 17:20:34.45,-1773,10856,-11839,-67,61,-8,122,-128,-130,3,-57
,530,2018/03/15 17:20:34.47,-1730,10851,-11986,-55,81,-42,97,-136,-139,-13,-27
,531,2018/03/15 17:20:34.49,-1667,10691,-11745,-16,126,-69,68,-142,-137,-55,0
,532,2018/03/15 17:20:34.51,-1731,10843,-11781,-16,130,-59,90,-146,-149,-57,-15
,533,2018/03/15 17:20:34.53,-1723,10711,-11852,-61,88,-18,135,-149,-153,-13,-58
,534,2018/03/15 17:20:34.55,-1737,10649,-11909,-68,71,-6,136,-139,-142,-1,-65
,535,2018/03/15 17:20:34.57,-1579,10649,-11877,-48,97,-48,91,-145,-139,-24,-21
,536,2018/03/15 17:20:34.59,-1705,10717,-11739,-14,125,-72,59,-139,-131,-55,6
,537,2018/03/15 17:20:34.61,-1575,10854,-11745,-16,117,-46,95,-133,-141,-50,-24
,538,2018/03/15 17:20:34.63,-1664,11002,-11693,-57,90,-12,145,-147,-157,-16,-66
,539,2018/03/15 17:20:34.65,-1652,11065,-11795,-71,72,-15,118,-143,-133,0,-51
,540,2018/03/15 17:20:34.67,-1641,11083,-11980,-38,96,-56,74,-134,-130,-29,-9
,541,2018/03/15 17:20:34.69,-1514,11196,-11885,-8,130,-62,67,-138,-129,-61,-2
,542,2018/03/15 17:20:34.71,-1479,11241,-11899,-9,115,-27,101,-124,-128,-53,-37
,543,2018/03/15 17:20:34.73,-1461,11313,-11915,-51,72,4,131,-123,-127,-10,-67
,544,2018/03/15 17:20:34.75,-1347,11322,-11866,-63,64,-27,105,-127,-132,0,-39
,545,2018/03/15 17:20:34.77,-1244,11404,-12003,-38,103,-75,62,-141,-137,-32,6
,546,2018/03/15 17:20:34.79,-1214,11404,-12027,-18,123,-72,64,-141,-136,-52,4
,547,2018/03/15 17:20:34.81,-1278,11460,-12056,-34,100,-40,100,-134,-140,-33,-30
,548,2018/03/15 17:20:34.83,-1193,11356,-11912,-77,52,-21,110,-129,-131,12,-44
,549,2018/03/15 17:20:34.85,-1185,11280,-11826,-82,55,-61,81,-137,-142,13,-10
,550,2018/03/15 17:20:34.87,-1173,11248,-11912,-55,85,-103,28,-140,-131,-15,37
,551,2018/03/15 17:20:34.89,-1127,11332,-12042,-54,94,-108,30,-148,-138,-20,39
,552,2018/03/15 17:20:34.91,-1146,11315,-11977,-84,51,-81,72,-135,-153,16,4
,553,2018/03/15 17:20:34.93,-1072,11497,-11826,-121,37,-55,106,-158,-161,42,-25
,554,2018/03/15 17:20:34.95,-1144,11545,-11864,-98,61,-79,70,-159,-149,18,4
,555,2018/03/15 17:20:34.97,-1148,11487,-11735,-56,95,-107,36,-151,-143,-19,35
,556,2018/03/15 17:20:34.99,-1163,11559,-11743,-37,116,-68,88,-153,-156,-39,-10
,557,2018/03/15 17:20:35.01,-1087,11341,-11597,-57,96,-30,126,-153,-156,-19,-48
,558,2018/03/15 17:20:35.03,-1127,11241,-11687,-83,65,-24,128,-148,-152,9,-52
,559,2018/03/15 17:20:35.05,-1126,11100,-11540,-60,92,-61,86,-152,-147,-16,-12
,560,2018/03/15 17:20:35.07,-1109,10978,-11372,-30,125,-90,64,-155,-154,-47,13
,561,2018/03/15 17:20:35.09,-1192,10813,-11678,-32,127,-66,94,-159,-160,-47,-14
,562,2018/03/15 17:20:35.11,-1262,10748,-11719,-72,78,-35,120,-150,-155,-3,-42
,563,2018/03/15 17:20:35.13,-1335,10690,-11683,-89,63,-31,120,-152,-151,13,-44
,564,2018/03/15 17:20:35.15,-1437,10911,-11477,-58,91,-67,64,-149,-131,-16,1
,565,2018/03/15 17:20:35.17,-1336,11091,-11409,-22,98,-88,31,-120,-119,-38,28
,566,2018/03/15 17:20:35.19,-1257,11353,-11728,-49,72,-72,46,-121,-118,-11,13
,567,2018/03/15 17:20:35.21,-1139,11316,-11881,-96,10,-52,58,-106,-110,43,-3
,568,2018/03/15 17:20:35.23,-1079,11376,-11975,-119,0,-83,50,-119,-133,59,16
,569,2018/03/15 17:20:35.25,-1053,11601,-11941,-73,52,-70,32,-125,-102,10,19
,570,2018/03/15 17:20:35.27,-1055,11702,-12056,0,105,-54,49,-105,-103,-52,2
,571,2018/03/15 17:20:35.29,-1025,11730,-12028,-22,80,-41,63,-102,-104,-29,-11
,572,2018/03/15 17:20:35.31,-1057,11626,-11971,-106,-4,-61,52,-102,-113,55,4
,573,2018/03/15 17:20:35.33,-905,11613,-11921,-139,-23,-81,29,-116,-110,81,26
,574,2018/03/15 17:20:35.35,-1035,11533,-11908,-56,52,-96,7,-108,-103,2,44
,575,2018/03/15 17:20:35.37,-1069,11392,-11921,-39,71,-102,6,-110,-108,-16,48
,576,2018/03/15 17:20:35.39,-1053,11368,-11876,-57,43,-26,83,-100,-109,7,-28
,577,2018/03/15 17:20:35.41,-980,11220,-11814,-87,25,-24,99,-112,-123,31,-37
,578,2018/03/15 17:20:35.43,-1022,11162,-11823,-79,42,-55,61,-121,-116,18,-3
,579,2018/03/15 17:20:35.45,-923,11161,-11746,-38,89,-99,27,-127,-126,-25,36
,580,2018/03/15 17:20:35.47,-1014,11157,-11736,-29,116,-85,72,-145,-157,-43,6
,581,2018/03/15 17:20:35.49,-991,11243,-11797,-85,71,-65,93,-156,-158,7,-14
,582,2018/03/15 17:20:35.51,-960,11188,-11831,-132,23,-68,91,-155,-159,54,-11
,583,2018/03/15 17:20:35.53,-940,11197,-11861,-109,51,-102,60,-160,-162,29,21
,584,2018/03/15 17:20:35.55,-973,11221,-11874,-60,111,-114,49,-171,-163,-25,32
,585,2018/03/15 17:20:35.57,-952,11204,-11815,-47,116,-80,88,-163,-168,-34,-4
,586,2018/03/15 17:20:35.59,-915,11166,-11857,-82,79,-42,125,-161,-167,1,-41
,587,2018/03/15 17:20:35.61,-1029,11169,-11961,-109,59,-48,125,-168,-173,25,-38
,588,2018/03/15 17:20:35.63,-959,11130,-11742,-71,96,-83,74,-167,-157,-12,4
,589,2018/03/15 17:20:35.65,-962,11114,-11896,-32,129,-85,69,-161,-154,-48,8
,590,2018/03/15 17:20:35.67,-1033,11078,-11923,-31,132,-54,115,-163,-169,-50,-30
,591,2018/03/15 17:20:35.69,-962,11033,-11829,-66,90,-10,150,-156,-160,-12,-70
,592,2018/03/15 17:20:35.71,-1011,11025,-11778,-71,90,-17,146,-161,-163,-9,-64
,593,2018/03/15 17:20:35.73,-1040,11010,-11801,-35,136,-75,97,-171,-172,-50,-11
,594,2018/03/15 17:20:35.75,-1037,10930,-11916,-14,155,-76,81,-169,-157,-70,-2
,595,2018/03/15 17:20:35.77,-1052,10877,-11903,-23,126,-35,115,-149,-150,-51,-40
,596,2018/03/15 17:20:35.79,-1007,10987,-11836,-66,81,-4,147,-147,-151,-7,-71
,597,2018/03/15 17:20:35.81,-961,11007,-11913,-59,90,-29,127,-149,-156,-15,-49
,598,2018/03/15 17:20:35.83,-1106,11065,-11983,-36,131,-77,82,-167,-159,-47,-2
,599,2018/03/15 17:20:35.85,-1052,11128,-11981,-11,144,-66,85,-155,-151,-66,-9
,600,2018/03/15 17:20:35.87,-1095,11243,-11809,-33,113,-21,122,-146,-143,-40,-50
,601,2018/03/15 17:20:35.89,-1180,11208,-11921,-63,72,-6,130,-135,-136,-4,-62
,602,2018/03/15 17:20:35.91,-1050,11221,-11889,-60,68,-36,84,-128,-120,-4,-24
,603,2018/03/15 17:20:35.93,-1078,11167,-11980,-17,104,-65,52,-121,-117,-43,6
,604,2018/03/15 17:20:35.95,-1116,11291,-11920,-7,124,-56,76,-131,-132,-58,-10
,605,2018/03/15 17:20:35.97,-1204,11305,-11657,-36,92,-17,119,-128,-136,-28,-51
,606,2018/03/15 17:20:35.99,-1351,11402,-11733,-80,55,-24,122,-135,-146,12,-49
,607,2018/03/15 17:20:36.01,-1298,11274,-11865,-74,59,-78,49,-133,-127,7,14
,608,2018/03/15 17:20:36.03,-1433,11426,-11434,-44,80,-92,31,-124,-123,-18,30
,609,2018/03/15 17:20:36.05,-1358,11192,-11689,-32,93,-74,60,-125,-134,-30,7
,610,2018/03/15 17:20:36.07,-1334,10913,-11826,-61,68,-15,113,-129,-128,-3,-49
,611,2018/03/15 17:20:36.09,-1352,10917,-11664,-76,58,-26,125,-134,-151,9,-49
,612,2018/03/15 17:20:36.11,-1291,10510,-11720,-60,89,-62,78,-149,-140,-14,-8
,613,2018/03/15 17:20:36.13,-1270,10903,-11928,-18,134,-66,87,-152,-153,-58,-10
,614,2018/03/15 17:20:36.15,-1295,10794,-11764,-11,141,-22,118,-152,-140,-65,-48
,615,2018/03/15 17:20:36.17,-1268,11096,-11744,-48,87,4,151,-135,-147,-19,-77
,616,2018/03/15 17:20:36.19,-1362,11311,-11894,-67,86,-14,135,-153,-149,-9,-60
,617,2018/03/15 17:20:36.21,-1334,11553,-12008,-27,121,-36,106,-148,-142,-47,-35
,618,2018/03/15 17:20:36.23,-1331,11417,-12041,26,172,-41,97,-146,-138,-99,-28
,619,2018/03/15 17:20:36.25,-1264,11199,-11938,-1,142,-6,131,-143,-137,-70,-62
,620,2018/03/15 17:20:36.27,-1316,11270,-11772,-37,88,9,148,-125,-139,-25,-78
,621,2018/03/15 17:20:36.29,-1330,11250,-11897,-60,81,-40,98,-141,-138,-10,-29
,622,2018/03/15 17:20:36.31,-1358,11259,-11866,-62,84,-102,47,-146,-149,-11,27
,623,2018/03/15 17:20:36.33,-1341,11382,-11882,-37,123,-85,67,-160,-152,-43,9
,624,2018/03/15 17:20:36.35,-1278,11257,-11954,-49,98,-48,103,-147,-151,-24,-27
,625,2018/03/15 17:20:36.37,-1364,11183,-11910,-86,62,-28,127,-148,-155,12,-49
,626,2018/03/15 17:20:36.39,-1352,11213,-12119,-79,81,-47,110,-160,-157,-1,-31
,627,2018/03/15 17:20:36.41,-1334,11179,-12194,-36,125,-86,66,-161,-152,-44,10
,628,2018/03/15 17:20:36.43,-1387,11159,-11923,-33,125,-86,75,-158,-161,-46,5
,629,2018/03/15 17:20:36.45,-1431,11156,-11830,-75,86,-54,100,-161,-154,-5,-23
,630,2018/03/15 17:20:36.47,-1365,11190,-11848,-94,42,-17,116,-136,-133,26,-49
,631,2018/03/15 17:20:36.49,-1441,11078,-11844,-56,80,-43,89,-136,-132,-12,-23
,632,2018/03/15 17:20:36.51,-1529,10894,-12001,-10,113,-56,53,-123,-109,-51,1
,633,2018/03/15 17:20:36.53,-1485,10789,-11896,11,121,-33,76,-110,-109,-66,-21
,634,2018/03/15 17:20:36.55,-1548,10704,-11868,-24,65,0,84,-89,-84,-20,-42
,635,2018/03/15 17:20:36.57,-1541,10706,-11873,-45,31,7,83,-76,-76,7,-45
,636,2018/03/15 17:20:36.59,-1550,10733,-12008,-23,56,-33,41,-79,-74,-16,-4
,637,2018/03/15 17:20:36.61,-1536,10830,-11907,3,80,-67,11,-77,-78,-41,28
,638,2018/03/15 17:20:36.63,-1576,10796,-11920,-16,77,-46,60,-93,-106,-30,-7
,639,2018/03/15 17:20:36.65,-1567,10911,-11946,-63,50,-12,108,-113,-120,6,-48
,640,2018/03/15 17:20:36.67,-1487,10828,-11875,-66,46,-12,103,-112,-115,10,-45
,641,2018/03/15 17:20:36.69,-1606,10891,-11837,-35,88,-52,66,-123,-118,-26,-7
,642,2018/03/15 17:20:36.71,-1632,10904,-11890,-5,115,-61,54,-120,-115,-55,3
,643,2018/03/15 17:20:36.73,-1548,11028,-11918,-18,101,-29,92,-119,-121,-41,-31
,644,2018/03/15 17:20:36.75,-1456,11070,-11931,-40,80,18,150,-120,-132,-20,-84
,645,2018/03/15 17:20:36.77,-1427,11104,-11944,-42,92,-4,126,-134,-130,-25,-61
,646,2018/03/15 17:20:36.79,-1493,11052,-11888,-15,109,-57,61,-124,-118,-47,-2
,647,2018/03/15 17:20:36.81,-1492,11176,-11932,-11,120,-68,64,-131,-132,-54,2
,648,2018/03/15 17:20:36.83,-1502,11210,-11895,-33,98,-31,111,-131,-142,-32,-40
,649,2018/03/15 17:20:36.85,-1553,11234,-11835,-54,77,5,146,-131,-141,-11,-75
,650,2018/03/15 17:20:36.87,-1552,11178,-11919,-47,98,-20,126,-145,-146,-25,-53
,651,2018/03/15 17:20:36.89,-1492,11090,-11831,-10,139,-50,91,-149,-141,-64,-20
,652,2018/03/15 17:20:36.91,-1543,11038,-11820,9,149,-46,100,-140,-146,-79,-27
,653,2018/03/15 17:20:36.93,-1551,10991,-11780,-27,125,0,155,-152,-155,-49,-77
,654,2018/03/15 17:20:36.95,-1528,10968,-11796,-55,94,-2,152,-149,-154,-19,-75
,655,2018/03/15 17:20:36.97,-1550,10973,-11741,-64,89,-42,107,-153,-149,-12,-32
,656,2018/03/15 17:20:36.99,-1558,10948,-11766,-18,135,-76,80,-153,-156,-58,-2
,657,2018/03/15 17:20:37.01,-1578,10991,-11661,-23,130,-57,86,-153,-143,-53,-14
,658,2018/03/15 17:20:37.03,-1559,11088,-11808,-49,88,-22,129,-137,-151,-19,-53
,659,2018/03/15 17:20:37.05,-1541,11141,-11841,-78,70,-24,116,-148,-140,4,-46
,660,2018/03/15 17:20:37.07,-1430,11127,-11883,-52,84,-54,74,-136,-128,-16,-10
,661,2018/03/15 17:20:37.09,-1408,11296,-11835,-16,110,-70,51,-126,-121,-47,9
,662,2018/03/15 17:20:37.11,-1557,11339,-11605,-25,104,-58,81,-129,-139,-39,-11
,663,2018/03/15 17:20:37.13,-1494,11363,-11694,-68,67,-22,118,-135,-140,0,-48
,664,2018/03/15 17:20:37.15,-1470,11326,-11840,-72,54,-25,102,-126,-127,9,-38
,665,2018/03/15 17:20:37.17,-1535,11421,-11807,-47,83,-52,70,-130,-122,-18,-9
,666,2018/03/15 17:20:37.19,-1512,11462,-11676,-6,116,-66,57,-122,-123,-55,4
,667,2018/03/15 17:20:37.21,-1496,11511,-11694,-23,105,-34,100,-128,-134,-41,-33
,668,2018/03/15 17:20:37.23,-1515,11485,-11765,-51,77,-4,134,-128,-138,-13,-65
,669,2018/03/15 17:20:37.25,-1514,11555,-11682,-65,72,-27,111,-137,-138,-3,-42
,670,2018/03/15 17:20:37.27,-1534,11449,-11610,-38,106,-67,73,-144,-140,-34,-3
,671,2018/03/15 17:20:37.29,-1487,11401,-11678,-19,124,-79,72,-143,-151,-52,3
,672,2018/03/15 17:20:37.31,-1514,11306,-11854,-39,116,-37,113,-155,-150,-38,-38
,673,2018/03/15 17:20:37.33,-1533,11437,-11657,-64,71,-9,130,-135,-139,-3,-60
,674,2018/03/15 17:20:37.35,-1604,11448,-11637,-50,89,-25,109,-139,-134,-19,-42
,675,2018/03/15 17:20:37.37,-1722,11338,-11650,-21,118,-73,59,-139,-132,-48,7
,676,2018/03/15 17:20:37.39,-1634,11435,-11589,0,130,-52,78,-130,-130,-65,-13
,677,2018/03/15 17:20:37.41,-1693,11353,-11592,-23,109,-16,116,-132,-132,-43,-50
,678,2018/03/15 17:20:37.43,-1673,11222,-11634,-61,54,-6,110,-115,-116,3,-52
,679,2018/03/15 17:20:37.45,-1716,11241,-11628,-52,66,-34,85,-118,-119,-7,-25
,680,2018/03/15 17:20:37.47,-1772,11196,-11575,-16,108,-65,51,-124,-116,-46,7
,681,2018/03/15 17:20:37.49,-1786,11107,-11553,-6,119,-45,85,-125,-130,-56,-20
,682,2018/03/15 17:20:37.51,-1796,11112,-11634,-28,90,9,126,-118,-117,-31,-67
,683,2018/03/15 17:20:37.53,-1868,11116,-11643,-41,71,14,131,-112,-117,-15,-72
,684,2018/03/15 17:20:37.55,-1909,11196,-11605,-21,102,-17,108,-123,-125,-40,-45
,685,2018/03/15 17:20:37.57,-1706,11176,-11804,9,140,-50,73,-131,-123,-74,-11
,686,2018/03/15 17:20:37.59,-1753,11376,-11714,-2,124,-38,91,-126,-129,-61,-26
,687,2018/03/15 17:20:37.61,-1807,11332,-11603,-53,70,-26,96,-123,-122,-8,-35
,688,2018/03/15 17:20:37.63,-1783,11382,-11679,-93,15,-46,39,-108,-85,39,3
,689,2018/03/15 17:20:37.65,-1893,11347,-11587,-74,6,-83,6,-80,-89,34,38
,690,2018/03/15 17:20:37.67,-1843,11224,-11697,-31,67,-81,21,-98,-102,-18,30
,691,2018/03/15 17:20:37.69,-1872,11256,-11657,-30,72,-48,64,-102,-112,-21,-8
,692,2018/03/15 17:20:37.71,-1964,11073,-11715,-68,47,-16,96,-115,-112,10,-40
,693,2018/03/15 17:20:37.73,-1838,11253,-11813,-69,37,-32,78,-106,-110,16,-23
,694,2018/03/15 17:20:37.75,-1821,11172,-11871,-41,76,-60,60,-117,-120,-17,0
,695,2018/03/15 17:20:37.77,-1799,11115,-11942,-28,102,-82,44,-130,-126,-37,19
,696,2018/03/15 17:20:37.79,-1818,11208,-11597,-47,72,-38,89,-119,-127,-12,-25
,697,2018/03/15 17:20:37.81,-1885,11262,-11651,-68,58,-20,119,-126,-139,5,-49
,698,2018/03/15 17:20:37.83,-1772,11047,-11615,-64,70,-37,94,-134,-131,-3,-28
,699,2018/03/15 17:20:37.85,-1887,11111,-11634,-41,91,-69,60,-132,-129,-25,4
,700,2018/03/15 17:20:37.87,-1930,11229,-11898,0,133,-43,86,-133,-129,-66,-21
,701,2018/03/15 17:20:37.89,-1968,11317,-11472,-16,119,-4,141,-135,-145,-51,-68
,702,2018/03/15 17:20:37.91,-1864,11210,-11608,-42,96,16,154,-138,-138,-27,-85
,703,2018/03/15 17:20:37.93,-1844,11182,-11754,-32,104,-14,108,-136,-122,-36,-47
,704,2018/03/15 17:20:37.95,-1753,11049,-12013,-2,117,-54,47,-119,-101,-57,3
,705,2018/03/15 17:20:37.97,-1885,11272,-11629,0,97,-51,48,-97,-99,-48,1
,706,2018/03/15 17:20:37.99,-1940,11237,-11682,-48,60,-28,89,-108,-117,-6,-30
,707,2018/03/15 17:20:38.01,-1884,11170,-11686,-75,44,-20,110,-119,-130,15,-45
,708,2018/03/15 17:20:38.03,-1862,11260,-11768,-63,78,-52,79,-141,-131,-7,-13
,709,2018/03/15 17:20:38.05,-1867,11299,-11721,-26,123,-81,77,-149,-158,-48,2
,710,2018/03/15 17:20:38.07,-1904,11241,-11608,-20,131,-45,98,-151,-143,-55,-26
,711,2018/03/15 17:20:38.09,-1905,11157,-11794,-43,105,-8,155,-148,-163,-31,-73
,712,2018/03/15 17:20:38.11,-1915,11242,-11819,-62,98,-3,149,-160,-152,-18,-73
,713,2018/03/15 17:20:38.13,-1815,11197,-11725,-30,126,-39,110,-156,-149,-48,-35
,714,2018/03/15 17:20:38.15,-1951,11183,-11908,17,174,-20,133,-157,-153,-95,-56
,715,2018/03/15 17:20:38.17,-1815,11099,-11719,50,198,4,152,-148,-148,-124,-78
,716,2018/03/15 17:20:38.19,-1897,11246,-11876,-30,115,-2,144,-145,-146,-42,-71
,717,2018/03/15 17:20:38.21,-1910,11179,-11784,-53,88,-15,120,-141,-135,-17,-52
,718,2018/03/15 17:20:38.23,-1945,11151,-11873,-36,109,-55,85,-145,-140,-36,-15
,719,2018/03/15 17:20:38.25,-1909,11169,-11983,-9,134,-69,69,-143,-138,-62,0
,720,2018/03/15 17:20:38.27,-2036,11002,-11828,-38,107,-47,106,-145,-153,-34,-29
,721,2018/03/15 17:20:38.29,-1953,11070,-11801,-69,79,-19,130,-148,-149,-5,-55
,722,2018/03/15 17:20:38.31,-2002,11064,-11726,-78,73,-42,116,-151,-158,2,-37
,723,2018/03/15 17:20:38.33,-2020,11114,-11682,-36,125,-64,83,-161,-147,-44,-9
,724,2018/03/15 17:20:38.35,-2021,11072,-11731,1,150,-40,112,-149,-152,-75,-36
,725,2018/03/15 17:20:38.37,-1940,11118,-11761,-2,151,9,164,-153,-155,-74,-86
,726,2018/03/15 17:20:38.39,-1968,11051,-11724,-35,108,19,163,-143,-144,-36,-91
,727,2018/03/15 17:20:38.41,-1979,11089,-11802,-29,116,-16,132,-145,-148,-43,-58
,728,2018/03/15 17:20:38.43,-2036,11069,-11816,-26,132,-96,51,-158,-147,-53,22
,729,2018/03/15 17:20:38.45,-1961,10929,-11795,-55,91,-118,27,-146,-145,-18,45
,730,2018/03/15 17:20:38.47,-1981,10972,-11781,-127,7,-117,7,-134,-124,60,55
,731,2018/03/15 17:20:38.49,-1998,10961,-11881,-162,-55,-101,3,-107,-104,108,49
,732,2018/03/15 17:20:38.51,-1992,10931,-11860,-145,-40,-142,-35,-105,-107,92,88
,733,2018/03/15 17:20:38.53,-1955,10947,-11825,-111,1,-170,-63,-112,-107,55,116
,734,2018/03/15 17:20:38.55,-2066,10987,-11717,-112,-4,-149,-39,-108,-110,58,94
,735,2018/03/15 17:20:38.57,-2030,11001,-11715,-143,-35,-72,44,-108,-116,89,14
,736,2018/03/15 17:20:38.59,-2049,11101,-11843,-113,-4,-47,59,-109,-106,58,-6
,737,2018/03/15 17:20:38.61,-2082,11093,-11964,-85,18,-88,13,-103,-101,33,37
,738,2018/03/15 17:20:38.63,-2073,11134,-11880,-40,72,-102,17,-112,-119,-16,42
,739,2018/03/15 17:20:38.65,-2051,11128,-11885,-67,51,-104,10,-118,-114,8,47
,740,2018/03/15 17:20:38.67,-2093,11095,-11853,-129,-20,-87,27,-109,-114,74,30
,741,2018/03/15 17:20:38.69,-2014,11151,-11817,-143,-30,-92,22,-113,-114,86,35
,742,2018/03/15 17:20:38.71,-2004,11102,-11852,-98,27,-115,7,-125,-122,35,54
,743,2018/03/15 17:20:38.73,-2082,11130,-11815,-70,63,-124,8,-133,-132,3,58
,744,2018/03/15 17:20:38.75,-2016,11060,-11839,-71,62,-66,70,-133,-136,4,-2
,745,2018/03/15 17:20:38.77,-1966,11066,-11871,-85,47,-28,108,-132,-136,19,-40
,746,2018/03/15 17:20:38.79,-1980,11056,-11825,-84,50,-43,90,-134,-133,17,-23
,747,2018/03/15 17:20:38.81,-2055,11010,-11844,-38,100,-68,64,-138,-132,-31,2
,748,2018/03/15 17:20:38.83,-1978,11085,-11825,-12,119,-62,67,-131,-129,-53,-2
,749,2018/03/15 17:20:38.85,-1971,11091,-11863,-25,105,-12,121,-130,-133,-40,-54
,750,2018/03/15 17:20:38.87,-1958,11061,-11848,-47,74,8,129,-121,-121,-13,-68
,751,2018/03/15 17:20:38.89,-1944,11083,-11818,-46,73,-20,96,-119,-116,-13,-38
,752,2018/03/15 17:20:38.91,-1977,11095,-11818,-9,112,-52,70,-121,-122,-51,-9
,753,2018/03/15 17:20:38.93,-1993,11070,-11859,6,136,-40,90,-130,-130,-71,-25
,754,2018/03/15 17:20:38.95,-1957,11085,-11822,-21,101,-1,125,-122,-126,-40,-62
,755,2018/03/15 17:20:38.97,-1990,11086,-11823,-47,80,11,141,-127,-130,-16,-76
,756,2018/03/15 17:20:38.99,-2047,11142,-11789,-20,102,-29,90,-122,-119,-41,-30
,757,2018/03/15 17:20:39.01,-2035,11162,-11865,-4,122,-56,69,-126,-125,-59,-6
,758,2018/03/15 17:20:39.03,-2024,11146,-11857,12,141,-28,102,-129,-130,-76,-37
,759,2018/03/15 17:20:39.05,-2135,11177,-11832,-31,94,3,129,-125,-126,-31,-66
,760,2018/03/15 17:20:39.07,-2088,11117,-11810,-54,76,-10,127,-130,-137,-11,-58
,761,2018/03/15 17:20:39.09,-2159,11093,-11847,-28,113,-33,98,-141,-131,-42,-32
,762,2018/03/15 17:20:39.11,-2132,11052,-11785,-2,128,-64,64,-130,-128,-63,0
,763,2018/03/15 17:20:39.13,-2163,11100,-11833,-16,110,-33,90,-126,-123,-47,-28
,764,2018/03/15 17:20:39.15,-2172,11082,-11888,-43,72,-2,120,-115,-122,-14,-59
,765,2018/03/15 17:20:39.17,-2090,11000,-11954,-59,68,-10,121,-127,-131,-4,-55
,766,2018/03/15 17:20:39.19,-2115,11016,-12052,-18,112,-28,90,-130,-118,-47,-31
,767,2018/03/15 17:20:39.21,-2061,11041,-12033,15,141,-49,83,-126,-132,-78,-17
,768,2018/03/15 17:20:39.23,-2186,11091,-11894,-14,125,-24,114,-139,-138,-55,-45
,769,2018/03/15 17:20:39.25,-2167,11021,-11944,-44,88,6,149,-132,-143,-22,-77
,770,2018/03/15 17:20:39.27,-2306,11100,-11912,-60,79,-41,89,-139,-130,-9,-24
,771,2018/03/15 17:20:39.29,-2402,11251,-11791,-61,68,-101,25,-129,-126,-3,38
,772,2018/03/15 17:20:39.31,-2527,11369,-11737,-56,73,-108,14,-129,-122,-8,47
,773,2018/03/15 17:20:39.33,-2541,11279,-11876,-79,38,-79,48,-117,-127,20,15
,774,2018/03/15 17:20:39.35,-2591,11203,-11969,-115,18,-45,92,-133,-137,48,-23
,775,2018/03/15 17:20:39.37,-2657,11094,-11906,-80,54,-40,96,-134,-136,13,-28
,776,2018/03/15 17:20:39.39,-2680,10994,-11922,-20,117,-46,87,-137,-133,-48,-20
,777,2018/03/15 17:20:39.41,-2753,10571,-12011,4,145,-37,106,-141,-143,-74,-34
,778,2018/03/15 17:20:39.43,-2616,10265,-12135,-24,116,-3,148,-140,-151,-46,-72
,779,2018/03/15 17:20:39.45,-2692,10110,-12150,-48,93,4,140,-141,-136,-22,-72
,780,2018/03/15 17:20:39.47,-2701,10096,-12002,-39,92,-27,102,-131,-129,-26,-37
,781,2018/03/15 17:20:39.49,-2696,9848,-12159,-9,127,-64,73,-136,-137,-59,-4
,782,2018/03/15 17:20:39.51,-2776,9868,-12049,-13,128,-50,88,-141,-138,-57,-19
,783,2018/03/15 17:20:39.53,-2735,9818,-12134,-50,93,-27,122,-143,-149,-21,-47
,784,2018/03/15 17:20:39.55,-2688,9819,-12086,-77,63,-18,113,-140,-131,7,-47
,785,2018/03/15 17:20:39.57,-2655,9796,-12243,-55,78,-59,77,-133,-136,-11,-9
,786,2018/03/15 17:20:39.59,-2631,9730,-12317,-23,117,-73,58,-140,-131,-47,7
,787,2018/03/15 17:20:39.61,-2608,9736,-12369,-24,113,-52,93,-137,-145,-44,-20
,788,2018/03/15 17:20:39.63,-2803,9786,-12360,-60,77,-20,119,-137,-139,-8,-49
,789,2018/03/15 17:20:39.65,-2900,9844,-12382,-79,59,-39,102,-138,-141,10,-31
,790,2018/03/15 17:20:39.67,-3015,10040,-12329,-56,82,-55,74,-138,-129,-13,-9
,791,2018/03/15 17:20:39.69,-3186,10184,-12193,0,129,-49,82,-129,-131,-64,-16
,792,2018/03/15 17:20:39.71,-3165,10445,-12034,-3,128,-20,114,-131,-134,-62,-47
,793,2018/03/15 17:20:39.73,-3157,10634,-11937,-50,80,-5,135,-130,-140,-15,-65
,794,2018/03/15 17:20:39.75,-3100,10940,-11844,-63,83,-23,122,-146,-145,-10,-49
,795,2018/03/15 17:20:39.77,-2907,11243,-11700,-2,138,-9,114,-140,-123,-68,-52
,796,2018/03/15 17:20:39.79,-2698,11498,-11634,116,242,28,153,-126,-125,-179,-90
,797,2018/03/15 17:20:39.81,-2512,11491,-11676,51,176,48,185,-125,-137,-113,-116
,798,2018/03/15 17:20:39.83,-2257,11536,-11720,-59,76,35,166,-135,-131,-8,-100
,799,2018/03/15 17:20:39.85,-2012,11587,-11691,-46,92,-30,109,-138,-139,-23,-39
,800,2018/03/15 17:20:39.87,-1897,11590,-11763,6,154,-115,19,-148,-134,-80,48
,801,2018/03/15 17:20:39.89,-1754,11721,-11743,-45,90,-163,-23,-135,-140,-22,93
,802,2018/03/15 17:20:39.91,-1676,11791,-11712,-173,-37,-103,43,-136,-146,105,30
,803,2018/03/15 17:20:39.93,-1539,11918,-11685,-210,-64,-105,50,-146,-155,137,27
,804,2018/03/15 17:20:39.95,-1356,11942,-11623,-166,-13,-185,-48,-153,-137,89,116
,805,2018/03/15 17:20:39.97,-1316,12149,-11470,-98,41,-217,-83,-139,-134,28,150
,806,2018/03/15 17:20:39.99,-1341,12059,-11511,-114,27,-153,-8,-141,-145,43,80
,807,2018/03/15 17:20:40.01,-1305,11848,-11639,-181,-43,-73,71,-138,-144,112,1
,808,2018/03/15 17:20:40.03,-1342,11588,-11537,-189,-56,-90,45,-133,-135,122,22
,809,2018/03/15 17:20:40.05,-1331,11466,-11338,-119,22,-168,-34,-141,-134,48,101
,810,2018/03/15 17:20:40.07,-1478,11347,-11494,-52,89,-167,-36,-141,-131,-18,101
,811,2018/03/15 17:20:40.09,-1390,11282,-11586,-69,61,-70,68,-130,-138,4,1
,812,2018/03/15 17:20:40.11,-1461,11256,-11723,-125,6,1,138,-131,-137,59,-69
,813,2018/03/15 17:20:40.13,-1527,11177,-11766,-120,11,-50,82,-131,-132,54,-16
,814,2018/03/15 17:20:40.15,-1548,11203,-11774,-47,92,-144,-5,-139,-139,-22,74
,815,2018/03/15 17:20:40.17,-1692,11067,-11779,-57,83,-260,-164,-140,-96,-13,212
,816,2018/03/15 17:20:40.19,-1789,10976,-11770,-390,-328,-621,-569,-62,-52,359,595
,817,2018/03/15 17:20:40.21,-1865,10846,-11854,-902,-858,-968,-915,-44,-53,880,941
,818,2018/03/15 17:20:40.23,-2043,10921,-11841,-1040,-989,-1011,-960,-51,-51,1014,985
,819,2018/03/15 17:20:40.25,-2126,10961,-11879,-893,-841,-917,-865,-52,-52,867,891
,820,2018/03/15 17:20:40.27,-2148,10963,-11962,-766,-702,-757,-690,-64,-67,734,723
,821,2018/03/15 17:20:40.29,-2353,11025,-11948,-687,-621,-528,-452,-66,-76,654,490
,822,2018/03/15 17:20:40.31,-2459,11035,-11964,-550,-480,-317,-239,-70,-78,515,278
,823,2018/03/15 17:20:40.33,-2493,11039,-11907,-301,-229,-240,-176,-72,-64,265,208
,824,2018/03/15 17:20:40.35,-2523,10919,-11948,-77,-13,-181,-130,-64,-51,45,155
,825,2018/03/15 17:20:40.37,-2564,10960,-11915,21,74,-32,19,-53,-51,-47,6
,826,2018/03/15 17:20:40.39,-2600,10971,-11930,-13,30,137,190,-43,-53,-8,-163
,827,2018/03/15 17:20:40.41,-2559,10955,-12076,-3,40,173,227,-43,-54,-18,-200
,828,2018/03/15 17:20:40.43,-2601,10927,-12014,113,169,95,142,-56,-47,-141,-118
,829,2018/03/15 17:20:40.45,-2567,10862,-11992,236,292,74,120,-56,-46,-264,-97
,830,2018/03/15 17:20:40.47,-2554,10771,-11965,226,280,176,232,-54,-56,-253,-204
,831,2018/03/15 17:20:40.49,-2503,10711,-11952,125,178,272,338,-53,-66,-151,-305
,832,2018/03/15 17:20:40.51,-2428,10740,-11962,110,165,246,307,-55,-61,-137,-276
,833,2018/03/15 17:20:40.53,-2391,10779,-11935,207,269,135,187,-62,-52,-238,-161
,834,2018/03/15 17:20:40.55,-2386,10729,-11963,294,355,126,187,-61,-61,-324,-156
,835,2018/03/15 17:20:40.57,-2403,10684,-12015,236,302,210,278,-66,-68,-269,-244
,836,2018/03/15 17:20:40.59,-2305,10749,-11964,117,173,278,342,-56,-64,-145,-310
,837,2018/03/15 17:20:40.61,-2274,10673,-11933,116,172,211,271,-56,-60,-144,-241
,838,2018/03/15 17:20:40.63,-2245,10679,-11899,220,288,107,163,-68,-56,-254,-135
,839,2018/03/15 17:20:40.65,-2243,10678,-11994,269,339,109,173,-70,-64,-304,-141
,840,2018/03/15 17:20:40.67,-2233,10750,-11875,193,259,224,292,-66,-68,-226,-258
,841,2018/03/15 17:20:40.69,-2129,10687,-12007,97,154,271,339,-57,-68,-125,-305
,842,2018/03/15 17:20:40.71,-2090,10752,-11993,122,184,182,246,-62,-64,-153,-214
,843,2018/03/15 17:20:40.73,-2067,10748,-11974,224,295,84,144,-71,-60,-259,-114
,844,2018/03/15 17:20:40.75,-2056,10804,-12033,252,322,122,187,-70,-65,-287,-154
,845,2018/03/15 17:20:40.77,-2073,10751,-12112,164,231,228,306,-67,-78,-197,-267
,846,2018/03/15 17:20:40.79,-2033,10759,-12182,85,155,252,327,-70,-75,-120,-289
,847,2018/03/15 17:20:40.81,-2000,10787,-12355,124,198,144,212,-74,-68,-161,-178
,848,2018/03/15 17:20:40.83,-2004,10889,-12012,229,309,70,151,-80,-81,-269,-110
,849,2018/03/15 17:20:40.85,-2024,10938,-11938,240,328,141,221,-88,-80,-284,-181
,850,2018/03/15 17:20:40.87,-1992,10887,-12239,142,216,242,325,-74,-83,-179,-283
,851,2018/03/15 17:20:40.89,-2008,10786,-12281,78,149,229,305,-71,-76,-113,-267
,852,2018/03/15 17:20:40.91,-1966,10747,-12166,144,221,125,200,-77,-75,-182,-162
,853,2018/03/15 17:20:40.93,-1974,10843,-12151,240,329,70,146,-89,-76,-284,-108
,854,2018/03/15 17:20:40.95,-2030,10949,-12326,212,290,141,221,-78,-80,-251,-181
,855,2018/03/15 17:20:40.97,-1977,10771,-11975,100,170,236,308,-70,-72,-135,-272
,856,2018/03/15 17:20:40.99,-2001,10714,-11981,64,133,192,267,-69,-75,-98,-229
,857,2018/03/15 17:20:41.01,-2037,10560,-12040,141,217,82,157,-76,-75,-179,-119
,858,2018/03/15 17:20:41.03,-2133,10730,-12054,226,316,69,147,-90,-78,-271,-108
,859,2018/03/15 17:20:41.05,-2089,10442,-12250,175,256,138,222,-81,-84,-215,-180
,860,2018/03/15 17:20:41.07,-2224,10450,-12073,63,129,219,295,-66,-76,-96,-257
,861,2018/03/15 17:20:41.09,-2365,10571,-11971,60,126,159,231,-66,-72,-93,-195
,862,2018/03/15 17:20:41.11,-2392,10621,-12086,160,237,64,130,-77,-66,-198,-97
,863,2018/03/15 17:20:41.13,-2349,10544,-12046,226,297,70,138,-71,-68,-261,-104
,864,2018/03/15 17:20:41.15,-2518,10580,-12204,154,222,164,236,-68,-72,-188,-200
,865,2018/03/15 17:20:41.17,-2514,10724,-12031,57,121,220,296,-64,-76,-89,-258
,866,2018/03/15 17:20:41.19,-2518,10767,-12060,71,141,133,202,-70,-69,-106,-167
,867,2018/03/15 17:20:41.21,-2512,10670,-12104,165,241,42,108,-76,-66,-203,-75
,868,2018/03/15 17:20:41.23,-2524,10705,-12120,202,277,65,137,-75,-72,-239,-101
,869,2018/03/15 17:20:41.25,-2514,10707,-11982,119,190,181,256,-71,-75,-154,-218
,870,2018/03/15 17:20:41.27,-2499,10741,-12060,48,119,208,284,-71,-76,-83,-246
,871,2018/03/15 17:20:41.29,-2499,10832,-12055,75,140,96,151,-65,-55,-107,-123
,872,2018/03/15 17:20:41.31,-2471,10790,-12085,162,229,18,76,-67,-58,-195,-47
,873,2018/03/15 17:20:41.33,-2400,10764,-12166,170,239,55,126,-69,-71,-204,-90
,874,2018/03/15 17:20:41.35,-2376,10682,-12140,62,131,153,231,-69,-78,-96,-192
,875,2018/03/15 17:20:41.37,-2291,10672,-12110,1,73,150,234,-72,-84,-37,-192
,876,2018/03/15 17:20:41.39,-2269,10714,-12096,64,143,60,133,-79,-73,-103,-96
,877,2018/03/15 17:20:41.41,-2336,10649,-12019,162,253,8,91,-91,-83,-207,-49
,878,2018/03/15 17:20:41.43,-2304,10685,-11977,144,235,65,157,-91,-92,-189,-111
,879,2018/03/15 17:20:41.45,-2219,10658,-11941,42,128,156,253,-86,-97,-85,-204
,880,2018/03/15 17:20:41.47,-2248,10692,-12054,5,91,142,230,-86,-88,-48,-186
,881,2018/03/15 17:20:41.49,-2322,10749,-11988,91,187,63,153,-96,-90,-139,-108
,882,2018/03/15 17:20:41.51,-2317,10769,-12160,195,293,39,127,-98,-88,-244,-83
,883,2018/03/15 17:20:41.53,-2153,10764,-12063,147,230,88,180,-83,-92,-188,-134
,884,2018/03/15 17:20:41.55,-2376,10814,-12254,6,90,124,219,-84,-95,-48,-171
,885,2018/03/15 17:20:41.57,-2318,10738,-12126,-42,45,60,140,-87,-80,-1,-100
,886,2018/03/15 17:20:41.59,-2391,10788,-12008,34,114,-55,16,-80,-71,-74,19
,887,2018/03/15 17:20:41.61,-2333,10752,-12121,82,162,-64,11,-80,-75,-122,26
,888,2018/03/15 17:20:41.63,-2282,10872,-12031,22,97,26,111,-75,-85,-59,-68
,889,2018/03/15 17:20:41.65,-2374,10811,-12051,-63,16,89,177,-79,-88,23,-133
,890,2018/03/15 17:20:41.67,-2396,10911,-12087,-49,41,24,123,-90,-99,4,-73
,891,2018/03/15 17:20:41.69,-2426,10854,-12088,50,165,-50,58,-115,-108,-107,-4
,892,2018/03/15 17:20:41.71,-2402,10794,-11960,113,230,-4,102,-117,-106,-171,-49
,893,2018/03/15 17:20:41.73,-2405,10830,-11982,61,166,110,229,-105,-119,-113,-169
,894,2018/03/15 17:20:41.75,-2400,10704,-12092,-3,109,162,282,-112,-120,-53,-222
,895,2018/03/15 17:20:41.77,-2286,10666,-12047,51,165,97,207,-114,-110,-108,-152
,896,2018/03/15 17:20:41.79,-2312,10701,-12049,162,285,27,142,-123,-115,-223,-84
,897,2018/03/15 17:20:41.81,-2289,10643,-12082,179,297,75,186,-118,-111,-238,-130
,898,2018/03/15 17:20:41.83,-2236,10679,-12149,95,198,165,283,-103,-118,-146,-224
,899,2018/03/15 17:20:41.85,-2256,10688,-12093,20,129,174,288,-109,-114,-74,-231
,900,2018/03/15 17:20:41.87,-2295,10724,-12113,74,182,69,170,-108,-101,-128,-119
,901,2018/03/15 17:20:41.89,-2334,10712,-12062,166,272,12,114,-106,-102,-219,-63
,902,2018/03/15 17:20:41.91,-2296,10742,-12061,146,254,61,168,-108,-107,-200,-114
,903,2018/03/15 17:20:41.93,-2281,10705,-12124,51,152,154,268,-101,-114,-101,-211
,904,2018/03/15 17:20:41.95,-2356,10690,-12059,-4,107,117,230,-111,-113,-51,-173
,905,2018/03/15 17:20:41.97,-2384,10784,-12002,51,166,17,124,-115,-107,-108,-70
,906,2018/03/15 17:20:41.99,-2442,10769,-12047,135,253,-14,92,-118,-106,-194,-39
,907,2018/03/15 17:20:42.01,-2410,10876,-12036,99,205,50,163,-106,-113,-152,-106
,908,2018/03/15 17:20:42.03,-2500,10891,-12023,-3,105,131,244,-108,-113,-51,-187
,909,2018/03/15 17:20:42.05,-2452,10874,-12034,-16,85,86,189,-101,-103,-34,-137
,910,2018/03/15 17:20:42.07,-2453,10844,-12014,55,167,-16,88,-112,-104,-111,-36
,911,2018/03/15 17:20:42.09,-2395,10865,-12026,117,228,-28,74,-111,-102,-172,-23
,912,2018/03/15 17:20:42.11,-2417,10808,-11967,59,165,48,164,-106,-116,-112,-106
,913,2018/03/15 17:20:42.13,-2425,10764,-12010,-38,69,105,222,-107,-117,-15,-163
,914,2018/03/15 17:20:42.15,-2324,10784,-11964,-32,80,42,152,-112,-110,-24,-97
,915,2018/03/15 17:20:42.17,-2436,10703,-12064,52,166,-47,59,-114,-106,-109,-6
,916,2018/03/15 17:20:42.19,-2319,10705,-12022,100,216,-30,79,-116,-109,-158,-24
,917,2018/03/15 17:20:42.21,-2431,10731,-12003,29,134,62,172,-105,-110,-81,-117
,918,2018/03/15 17:20:42.23,-2383,10725,-11933,-48,55,94,216,-103,-122,-3,-155
,919,2018/03/15 17:20:42.25,-2333,10805,-12020,-27,95,26,142,-122,-116,-34,-84
,920,2018/03/15 17:20:42.27,-2347,10845,-11991,89,212,-40,69,-123,-109,-150,-14
,921,2018/03/15 17:20:42.29,-2357,10838,-11997,107,225,1,115,-118,-114,-166,-58
,922,2018/03/15 17:20:42.31,-2345,10854,-12042,25,135,90,204,-110,-114,-80,-147
,923,2018/03/15 17:20:42.33,-2364,10782,-12101,-49,51,98,202,-100,-104,-1,-150
,924,2018/03/15 17:20:42.35,-2343,10733,-12032,4,103,10,102,-99,-92,-53,-56
,925,2018/03/15 17:20:42.37,-2320,10714,-11840,88,194,-58,51,-106,-109,-141,3
,926,2018/03/15 17:20:42.39,-2393,10800,-11920,80,191,-7,105,-111,-112,-135,-49
,927,2018/03/15 17:20:42.41,-2326,10776,-12042,-16,88,90,198,-104,-108,-36,-144
,928,2018/03/15 17:20:42.43,-2342,10837,-12024,-57,54,73,184,-111,-111,1,-128
,929,2018/03/15 17:20:42.45,-2358,10921,-12208,16,129,-6,100,-113,-106,-72,-47
,930,2018/03/15 17:20:42.47,-2472,11075,-12485,105,221,-39,70,-116,-109,-163,-15
,931,2018/03/15 17:20:42.49,-2566,11210,-12122,82,206,36,161,-124,-125,-144,-98
,932,2018/03/15 17:20:42.51,-2690,11175,-11742,-11,105,101,229,-116,-128,-47,-165
,933,2018/03/15 17:20:42.53,-2647,11185,-11910,-51,70,47,171,-121,-124,-9,-109
,934,2018/03/15 17:20:42.55,-2534,10881,-11828,-3,132,-77,48,-135,-125,-64,14
,935,2018/03/15 17:20:42.57,-2613,10420,-12380,40,174,-110,10,-134,-120,-107,50
,936,2018/03/15 17:20:42.59,-2745,10468,-12292,-18,89,-31,70,-107,-101,-35,-19
,937,2018/03/15 17:20:42.61,-2821,10529,-12096,-112,-24,19,106,-88,-87,68,-62
,938,2018/03/15 17:20:42.63,-2878,10489,-11929,-114,-36,-43,35,-78,-78,75,4
,939,2018/03/15 17:20:42.65,-2880,10342,-11791,-40,48,-120,-42,-88,-78,-4,81
,940,2018/03/15 17:20:42.67,-2792,10403,-11874,28,122,-86,16,-94,-102,-75,35
,941,2018/03/15 17:20:42.69,-2792,10387,-11791,-13,87,18,125,-100,-107,-37,-71
,942,2018/03/15 17:20:42.71,-2621,10315,-12094,-79,14,58,168,-93,-110,32,-113
,943,2018/03/15 17:20:42.73,-2423,10442,-12221,-58,50,-4,104,-108,-108,4,-50
,944,2018/03/15 17:20:42.75,-2219,10456,-12198,48,168,-65,48,-120,-113,-108,8
,945,2018/03/15 17:20:42.77,-2220,10383,-12304,100,218,-2,127,-118,-129,-159,-62
,946,2018/03/15 17:20:42.79,-2135,10331,-11968,42,162,96,224,-120,-128,-102,-160
,947,2018/03/15 17:20:42.81,-2014,10351,-12297,-32,84,115,237,-116,-122,-26,-176
,948,2018/03/15 17:20:42.83,-2047,10008,-12114,11,135,19,133,-124,-114,-73,-76
,949,2018/03/15 17:20:42.85,-1789,9917,-12081,83,202,-54,59,-119,-113,-142,-2
,950,2018/03/15 17:20:42.87,-1783,9797,-11818,83,202,-9,113,-119,-122,-142,-52
,951,2018/03/15 17:20:42.89,-1728,9815,-12230,-18,95,66,187,-113,-121,-38,-126
,952,2018/03/15 17:20:42.91,-1544,9864,-12540,-74,39,52,176,-113,-124,17,-114
,953,2018/03/15 17:20:42.93,-1582,10067,-12477,-22,104,-30,84,-126,-114,-41,-27
,954,2018/03/15 17:20:42.95,-1533,10442,-12490,69,184,-66,37,-115,-103,-126,14
,955,2018/03/15 17:20:42.97,-1586,10801,-12534,67,173,-7,101,-106,-108,-120,-47
,956,2018/03/15 17:20:42.99,-1683,10898,-12506,-26,80,87,200,-106,-113,-27,-143
,957,2018/03/15 17:20:43.01,-1681,11092,-12461,-54,56,52,177,-110,-125,-1,-114
,958,2018/03/15 17:20:43.03,-1679,11236,-12407,-19,102,-8,87,-121,-95,-41,-39
,959,2018/03/15 17:20:43.05,-1868,11270,-12452,63,160,-28,66,-97,-94,-111,-19
,960,2018/03/15 17:20:43.07,-1845,11412,-12208,64,161,24,119,-97,-95,-112,-71
,961,2018/03/15 17:20:43.09,-1897,11275,-12205,-20,67,79,174,-87,-95,-23,-126
,962,2018/03/15 17:20:43.11,-1889,11029,-12019,-37,53,58,145,-90,-87,-8,-101
,963,2018/03/15 17:20:43.13,-1921,11054,-12047,34,131,-59,33,-97,-92,-82,13
,964,2018/03/15 17:20:43.15,-1883,11041,-11928,56,168,-71,43,-112,-114,-112,14
,965,2018/03/15 17:20:43.17,-1975,11043,-11984,-4,120,-5,139,-124,-144,-58,-67
,966,2018/03/15 17:20:43.19,-2001,11166,-12038,-86,52,43,200,-138,-157,17,-121
,967,2018/03/15 17:20:43.21,-2085,10981,-11981,-86,79,-36,133,-165,-169,3,-48
,968,2018/03/15 17:20:43.23,-1932,10888,-11737,4,191,-86,92,-187,-178,-97,-3
,969,2018/03/15 17:20:43.25,-1975,10967,-11714,57,237,-53,124,-180,-177,-147,-35
,970,2018/03/15 17:20:43.27,-1945,11099,-11721,-14,160,30,221,-174,-191,-73,-125
,971,2018/03/15 17:20:43.29,-1879,11196,-11713,-81,95,54,232,-176,-178,-7,-143
,972,2018/03/15 17:20:43.31,-1936,11282,-11582,-42,128,-16,134,-170,-150,-43,-59
,973,2018/03/15 17:20:43.33,-2074,11430,-11592,49,204,-71,74,-155,-145,-126,-1
,974,2018/03/15 17:20:43.35,-2008,11420,-11690,57,207,-35,114,-150,-149,-132,-39
,975,2018/03/15 17:20:43.37,-2137,11395,-11649,-30,110,52,196,-140,-144,-40,-124
,976,2018/03/15 17:20:43.39,-2273,11551,-11642,-68,66,62,199,-134,-137,1,-130
,977,2018/03/15 17:20:43.41,-2149,11404,-11514,-12,128,-30,108,-140,-138,-58,-39
,978,2018/03/15 17:20:43.43,-2216,11485,-11444,55,202,-74,63,-147,-137,-128,5
,979,2018/03/15 17:20:43.45,-2175,11338,-11531,40,185,-20,129,-145,-149,-112,-54
,980,2018/03/15 17:20:43.47,-2194,11322,-11690,-44,95,65,212,-139,-147,-25,-138
,981,2018/03/15 17:20:43.49,-2174,11257,-11444,-66,70,40,184,-136,-144,-2,-112
,982,2018/03/15 17:20:43.51,-2141,11318,-11454,-4,142,-44,93,-146,-137,-69,-24
,983,2018/03/15 17:20:43.53,-2246,11270,-11552,78,220,-60,72,-142,-132,-149,-6
,984,2018/03/15 17:20:43.55,-2213,11459,-11597,41,169,22,151,-128,-129,-105,-86
,985,2018/03/15 17:20:43.57,-2218,11575,-11569,-38,84,76,213,-122,-137,-23,-144
,986,2018/03/15 17:20:43.59,-2198,11201,-11477,-61,74,20,156,-135,-136,-6,-88
,987,2018/03/15 17:20:43.61,-2236,11305,-11649,8,148,-68,65,-140,-133,-78,1
,988,2018/03/15 17:20:43.63,-2332,11452,-11775,68,209,-39,88,-141,-127,-138,-24
,989,2018/03/15 17:20:43.65,-2293,11208,-11618,33,153,30,159,-120,-129,-93,-94
,990,2018/03/15 17:20:43.67,-2248,11076,-11520,-71,55,56,178,-126,-122,8,-117
,991,2018/03/15 17:20:43.69,-2278,11168,-11738,-64,52,-9,112,-116,-121,6,-51
,992,2018/03/15 17:20:43.71,-2301,11159,-11610,21,156,-69,54,-135,-123,-88,7
,993,2018/03/15 17:20:43.73,-2395,11267,-11583,69,192,-32,84,-123,-116,-130,-26
,994,2018/03/15 17:20:43.75,-2248,11338,-11558,15,129,57,186,-114,-129,-72,-121
,995,2018/03/15 17:20:43.77,-2324,11257,-11556,-48,76,85,216,-124,-131,-14,-150
,996,2018/03/15 17:20:43.79,-2330,11257,-11538,-15,112,6,121,-127,-115,-48,-63
,997,2018/03/15 17:20:43.81,-2410,11333,-11551,63,182,-56,58,-119,-114,-122,-1
,998,2018/03/15 17:20:43.83,-2298,11354,-11395,76,197,-12,112,-121,-124,-136,-50
,999,2018/03/15 17:20:43.85,-2311,11387,-11408,-1,115,68,192,-116,-124,-57,-130
,1000,2018/03/15 17:20:43.87,-2390,11318,-11584,-57,58,67,185,-115,-118,0,-126
,1001,2018/03/15 17:20:43.89,-2335,11458,-11368,-15,112,-25,98,-127,-123,-48,-36
,1002,2018/03/15 17:20:43.91,-2352,11560,-11512,57,194,-73,45,-137,-118,-125,14
,1003,2018/03/15 17:20:43.93,-2379,11625,-11682,26,152,-44,83,-126,-127,-89,-19
,1004,2018/03/15 17:20:43.95,-2424,11530,-11581,-84,31,11,139,-115,-128,26,-75
,1005,2018/03/15 17:20:43.97,-2347,11535,-11538,-119,7,0,124,-126,-124,56,-62
,1006,2018/03/15 17:20:43.99,-2448,11465,-11665,-44,82,-90,25,-126,-115,-19,32
,1007,2018/03/15 17:20:44.01,-2333,11446,-11590,22,147,-101,15,-125,-116,-84,43
,1008,2018/03/15 17:20:44.03,-2346,11306,-11465,2,115,-23,92,-113,-115,-58,-34
,1009,2018/03/15 17:20:44.05,-2410,10905,-11462,-73,27,49,151,-100,-102,23,-100
,1010,2018/03/15 17:20:44.07,-2332,10865,-11411,-75,32,13,120,-107,-107,21,-66
,1011,2018/03/15 17:20:44.09,-2388,10758,-11685,3,110,-66,30,-107,-96,-56,18
,1012,2018/03/15 17:20:44.11,-2191,10553,-11506,52,155,-72,26,-103,-98,-103,23
,1013,2018/03/15 17:20:44.13,-2241,10790,-11547,10,100,26,116,-90,-90,-55,-71
,1014,2018/03/15 17:20:44.15,-2106,10714,-11376,-52,29,69,160,-81,-91,11,-114
,1015,2018/03/15 17:20:44.17,-2110,10955,-11206,-63,34,-2,103,-97,-105,14,-50
,1016,2018/03/15 17:20:44.19,-2049,11053,-11374,22,141,-64,36,-119,-100,-81,14
,1017,2018/03/15 17:20:44.21,-1949,11472,-11381,72,171,-42,51,-99,-93,-121,-4
,1018,2018/03/15 17:20:44.23,-2058,11756,-11424,2,86,38,130,-84,-92,-44,-84
,1019,2018/03/15 17:20:44.25,-2038,12010,-11864,-64,14,57,135,-78,-78,25,-96
,1020,2018/03/15 17:20:44.27,-2189,11992,-11967,-66,1,-61,-6,-67,-55,32,33
,1021,2018/03/15 17:20:44.29,-2245,11847,-12050,-26,33,-151,-91,-59,-60,-3,121
,1022,2018/03/15 17:20:44.31,-2231,11729,-11951,-38,25,-132,-60,-63,-72,6,96
,1023,2018/03/15 17:20:44.33,-2244,11661,-11678,-106,-28,-31,68,-78,-99,67,-18
,1024,2018/03/15 17:20:44.35,-2448,11464,-11873,-138,-29,-21,113,-109,-134,83,-46
,1025,2018/03/15 17:20:44.37,-2470,11200,-11902,-84,61,-72,65,-145,-137,11,3
,1026,2018/03/15 17:20:44.39,-2399,10963,-11591,28,173,-82,56,-145,-138,-100,13
,1027,2018/03/15 17:20:44.41,-2346,10705,-11639,40,183,-14,136,-143,-150,-111,-61
,1028,2018/03/15 17:20:44.43,-2343,10466,-11531,-17,124,89,236,-141,-147,-53,-162
,1029,2018/03/15 17:20:44.45,-2188,10466,-11458,-38,108,72,228,-146,-156,-35,-150
,1030,2018/03/15 17:20:44.47,-2264,10693,-11543,20,184,-10,140,-164,-150,-102,-65
,1031,2018/03/15 17:20:44.49,-2127,11026,-11479,96,256,-30,118,-160,-148,-176,-44
,1032,2018/03/15 17:20:44.51,-2143,11201,-11586,70,216,35,185,-146,-150,-143,-110
,1033,2018/03/15 17:20:44.53,-2179,11412,-11515,-14,128,94,238,-142,-144,-57,-166
,1034,2018/03/15 17:20:44.55,-2132,11470,-11525,-37,101,44,187,-138,-143,-32,-115
,1035,2018/03/15 17:20:44.57,-2096,11320,-11582,18,173,-55,95,-155,-150,-95,-20
,1036,2018/03/15 17:20:44.59,-2231,11414,-11697,60,216,-58,83,-156,-141,-138,-12
,1037,2018/03/15 17:20:44.61,-2318,11240,-11571,19,158,20,166,-139,-146,-88,-93
,1038,2018/03/15 17:20:44.63,-2383,11288,-11587,-43,91,95,241,-134,-146,-24,-168
,1039,2018/03/15 17:20:44.65,-2459,11426,-11293,-17,125,41,177,-142,-136,-54,-109
,1040,2018/03/15 17:20:44.67,-2495,11450,-11429,52,192,-43,89,-140,-132,-122,-23
,1041,2018/03/15 17:20:44.69,-2463,11332,-11485,69,212,-46,87,-143,-133,-140,-20
,1042,2018/03/15 17:20:44.71,-2524,11435,-11389,-2,123,25,156,-125,-131,-60,-90
,1043,2018/03/15 17:20:44.73,-2507,11684,-11474,-80,41,62,180,-121,-118,19,-121
,1044,2018/03/15 17:20:44.75,-2525,11533,-11572,-42,70,-8,102,-112,-110,-14,-47
,1045,2018/03/15 17:20:44.77,-2478,11585,-11552,36,160,-67,46,-124,-113,-98,10
,1046,2018/03/15 17:20:44.79,-2448,11400,-11544,53,168,-35,82,-115,-117,-110,-23
,1047,2018/03/15 17:20:44.81,-2500,11463,-11392,-8,109,64,189,-117,-125,-50,-126
,1048,2018/03/15 17:20:44.83,-2499,11307,-11548,-39,76,79,197,-115,-118,-18,-138
,1049,2018/03/15 17:20:44.85,-2601,11265,-11484,-17,106,-39,86,-123,-125,-44,-23
,1050,2018/03/15 17:20:44.87,-2593,11237,-11378,20,162,-98,36,-142,-134,-91,31
,1051,2018/03/15 17:20:44.89,-2608,11174,-11275,20,153,-48,86,-133,-134,-86,-19
,1052,2018/03/15 17:20:44.91,-2526,11235,-11413,-66,64,13,154,-130,-141,1,-83
,1053,2018/03/15 17:20:44.93,-2501,11482,-11466,-108,17,6,129,-125,-123,45,-67
,1054,2018/03/15 17:20:44.95,-2381,11401,-11559,-40,88,-60,64,-128,-124,-24,-2
,1055,2018/03/15 17:20:44.97,-2219,11327,-11703,48,186,-72,54,-138,-126,-117,9
,1056,2018/03/15 17:20:44.99,-2249,11350,-11399,34,156,0,124,-122,-124,-95,-62
,1057,2018/03/15 17:20:45.01,-2146,11280,-11672,-39,80,73,200,-119,-127,-20,-136
,1058,2018/03/15 17:20:45.03,-2135,11123,-11564,-50,69,37,152,-119,-115,-9,-94
,1059,2018/03/15 17:20:45.05,-2196,11395,-11578,5,125,-65,50,-120,-115,-65,7
,1060,2018/03/15 17:20:45.07,-2226,11277,-11582,48,166,-58,45,-118,-103,-107,6
,1061,2018/03/15 17:20:45.09,-2142,11244,-11769,33,132,36,142,-99,-106,-82,-89
,1062,2018/03/15 17:20:45.11,-2207,11231,-11512,-17,78,109,213,-95,-104,-30,-161
,1063,2018/03/15 17:20:45.13,-2230,11268,-11737,-10,101,39,160,-111,-121,-45,-99
,1064,2018/03/15 17:20:45.15,-2237,10998,-11734,50,177,-43,72,-127,-115,-113,-14
,1065,2018/03/15 17:20:45.17,-2318,11180,-11537,76,203,-46,83,-127,-129,-139,-18
,1066,2018/03/15 17:20:45.19,-2350,11128,-11563,1,132,23,162,-131,-139,-66,-92
,1067,2018/03/15 17:20:45.21,-2304,11126,-11624,-69,58,50,184,-127,-134,5,-117
,1068,2018/03/15 17:20:45.23,-2227,11114,-11618,-48,82,-10,117,-130,-127,-17,-53
,1069,2018/03/15 17:20:45.25,-2266,11122,-11617,31,170,-68,62,-139,-130,-100,3
,1070,2018/03/15 17:20:45.27,-2412,11088,-11664,56,190,-35,99,-134,-134,-123,-32
,1071,2018/03/15 17:20:45.29,-2363,11113,-11590,-12,118,48,181,-130,-133,-53,-114
,1072,2018/03/15 17:20:45.31,-2419,11118,-11607,-64,61,56,189,-125,-133,1,-122
,1073,2018/03/15 17:20:45.33,-2415,11085,-11531,-24,109,-16,112,-133,-128,-42,-48
,1074,2018/03/15 17:20:45.35,-2423,11088,-11640,57,189,-63,59,-132,-122,-123,2
,1075,2018/03/15 17:20:45.37,-2453,11214,-11574,52,173,-19,105,-121,-124,-112,-43
,1076,2018/03/15 17:20:45.39,-2446,11219,-11504,-30,92,47,181,-122,-134,-31,-114
,1077,2018/03/15 17:20:45.41,-2417,11227,-11578,-74,53,40,168,-127,-128,10,-104
,1078,2018/03/15 17:20:45.43,-2478,11212,-11573,-19,114,-51,79,-133,-130,-47,-14
,1079,2018/03/15 17:20:45.45,-2519,11270,-11622,43,182,-77,56,-139,-133,-112,10
,1080,2018/03/15 17:20:45.47,-2512,11316,-11611,24,160,-18,126,-136,-144,-92,-54
,1081,2018/03/15 17:20:45.49,-2400,11343,-11579,-56,79,48,190,-135,-142,-11,-119
,1082,2018/03/15 17:20:45.51,-2386,11367,-11562,-70,60,20,145,-130,-125,5,-82
,1083,2018/03/15 17:20:45.53,-2359,11400,-11536,-17,117,-71,57,-134,-128,-50,7
,1084,2018/03/15 17:20:45.55,-2309,11361,-11572,32,174,-81,55,-142,-136,-103,13
,1085,2018/03/15 17:20:45.57,-2405,11377,-11606,2,137,1,141,-135,-140,-69,-71
,1086,2018/03/15 17:20:45.59,-2242,11317,-11606,-75,54,39,178,-129,-139,10,-108
,1087,2018/03/15 17:20:45.61,-2301,11346,-11521,-78,57,-9,127,-135,-136,10,-59
,1088,2018/03/15 17:20:45.63,-2276,11249,-11611,-8,138,-86,53,-146,-139,-65,16
,1089,2018/03/15 17:20:45.65,-2227,11269,-11607,33,178,-85,57,-145,-142,-105,14
,1090,2018/03/15 17:20:45.67,-2236,11337,-11606,-38,102,-13,133,-140,-146,-32,-60
,1091,2018/03/15 17:20:45.69,-2209,11289,-11626,-99,36,19,166,-135,-147,31,-92
,1092,2018/03/15 17:20:45.71,-2129,11314,-11686,-83,67,-43,101,-150,-144,8,-29
,1093,2018/03/15 17:20:45.73,-2142,11307,-11719,-7,141,-107,32,-148,-139,-67,37
,1094,2018/03/15 17:20:45.75,-2128,11305,-11720,18,162,-71,72,-144,-143,-90,0
,1095,2018/03/15 17:20:45.77,-2191,11259,-11670,-46,89,10,154,-135,-144,-21,-82
,1096,2018/03/15 17:20:45.79,-2142,11245,-11571,-94,40,26,169,-134,-143,27,-97
,1097,2018/03/15 17:20:45.81,-2128,11244,-11640,-60,89,-47,92,-149,-139,-14,-22
,1098,2018/03/15 17:20:45.83,-2219,11141,-11638,25,167,-86,46,-142,-132,-96,20
,1099,2018/03/15 17:20:45.85,-2125,11156,-11644,29,162,-43,92,-133,-135,-95,-24
,1100,2018/03/15 17:20:45.87,-2216,11076,-11694,-47,82,35,173,-129,-138,-17,-104
,1101,2018/03/15 17:20:45.89,-2125,11139,-11633,-79,55,30,169,-134,-139,12,-99
,1102,2018/03/15 17:20:45.91,-2188,11091,-11639,-28,111,-50,78,-139,-128,-41,-14
,1103,2018/03/15 17:20:45.93,-2274,11032,-11570,42,181,-84,53,-139,-137,-111,15
,1104,2018/03/15 17:20:45.95,-2280,11060,-11558,21,162,-29,115,-141,-144,-91,-43
,1105,2018/03/15 17:20:45.97,-2293,11116,-11627,-51,75,58,184,-126,-126,-12,-121
,1106,2018/03/15 17:20:45.99,-2317,11080,-11632,-54,66,32,153,-120,-121,-6,-92
,1107,2018/03/15 17:20:46.01,-2257,11147,-11635,-11,117,-74,44,-128,-118,-53,15
,1108,2018/03/15 17:20:46.03,-2254,11102,-11704,40,167,-79,45,-127,-124,-103,17
,1109,2018/03/15 17:20:46.05,-2356,11175,-11743,8,130,-5,122,-122,-127,-69,-58
,1110,2018/03/15 17:20:46.07,-2331,11097,-11770,-68,54,51,182,-122,-131,7,-116
,1111,2018/03/15 17:20:46.09,-2389,11174,-11627,-65,61,2,124,-126,-122,2,-63
,1112,2018/03/15 17:20:46.11,-2346,11246,-11634,7,133,-71,57,-126,-128,-70,7
,1113,2018/03/15 17:20:46.13,-2316,11272,-11745,41,184,-71,65,-143,-136,-112,3
,1114,2018/03/15 17:20:46.15,-2315,11295,-11768,-9,114,10,136,-123,-126,-52,-73
,1115,2018/03/15 17:20:46.17,-2333,11221,-11686,-83,40,44,174,-123,-130,21,-109
,1116,2018/03/15 17:20:46.19,-2236,11210,-11707,-48,74,1,119,-122,-118,-13,-60
,1117,2018/03/15 17:20:46.21,-2252,11171,-11654,35,163,-67,52,-128,-119,-99,7
,1118,2018/03/15 17:20:46.23,-2322,11204,-11590,58,184,-40,90,-126,-130,-121,-25
,1119,2018/03/15 17:20:46.25,-2258,11159,-11639,-16,112,37,166,-128,-129,-48,-101
,1120,2018/03/15 17:20:46.27,-2235,11251,-11712,-68,56,51,185,-124,-134,6,-118
,1121,2018/03/15 17:20:46.29,-2306,11158,-11724,-38,96,-22,101,-134,-123,-29,-39
,1122,2018/03/15 17:20:46.31,-2340,11191,-11688,44,177,-71,58,-133,-129,-110,6
,1123,2018/03/15 17:20:46.33,-2322,11147,-11615,49,182,-16,115,-133,-131,-115,-49
,1124,2018/03/15 17:20:46.35,-2257,11190,-11656,-23,105,56,192,-128,-136,-41,-124
,1125,2018/03/15 17:20:46.37,-2255,11083,-11665,-75,52,40,164,-127,-124,11,-102
,1126,2018/03/15 17:20:46.39,-2220,11064,-11741,-27,102,-42,86,-129,-128,-37,-22
,1127,2018/03/15 17:20:46.41,-2219,11094,-11676,50,184,-70,61,-134,-131,-117,4
,1128,2018/03/15 17:20:46.43,-2224,11082,-11565,33,163,-18,106,-130,-124,-98,-44
,1129,2018/03/15 17:20:46.45,-2335,11164,-11601,-55,62,41,164,-117,-123,-3,-102
,1130,2018/03/15 17:20:46.47,-2255,11212,-11685,-80,44,18,146,-124,-128,18,-82
,1131,2018/03/15 17:20:46.49,-2263,11255,-11706,-9,122,-56,64,-131,-120,-56,-4
,1132,2018/03/15 17:20:46.51,-2209,11226,-11721,44,175,-87,46,-131,-133,-109,20
,1133,2018/03/15 17:20:46.53,-2273,11130,-11790,-2,132,-15,123,-134,-138,-65,-54
,1134,2018/03/15 17:20:46.55,-2137,11150,-11673,-80,48,23,162,-128,-139,16,-92
,1135,2018/03/15 17:20:46.57,-2268,11204,-11673,-105,32,-33,102,-137,-135,36,-34
,1136,2018/03/15 17:20:46.59,-2271,11192,-11789,-24,116,-93,38,-140,-131,-46,27
,1137,2018/03/15 17:20:46.61,-2142,11173,-11695,22,158,-96,37,-136,-133,-90,29
,1138,2018/03/15 17:20:46.63,-2189,11195,-11657,-38,90,-20,114,-128,-134,-26,-47
,1139,2018/03/15 17:20:46.65,-2233,11177,-11733,-101,22,24,147,-123,-123,39,-85
,1140,2018/03/15 17:20:46.67,-2159,11137,-11688,-80,40,-30,81,-120,-111,20,-25
,1141,2018/03/15 17:20:46.69,-2248,11102,-11691,6,129,-87,33,-123,-120,-67,27
,1142,2018/03/15 17:20:46.71,-2291,11116,-11688,33,159,-63,55,-126,-118,-96,4
,1143,2018/03/15 17:20:46.73,-2290,11028,-11696,-34,80,11,139,-114,-128,-23,-75
,1144,2018/03/15 17:20:46.75,-2274,11021,-11732,-82,38,33,164,-120,-131,22,-98
,1145,2018/03/15 17:20:46.77,-2291,11017,-11657,-56,73,-54,70,-129,-124,-8,-8
,1146,2018/03/15 17:20:46.79,-2236,11086,-11606,23,155,-84,39,-132,-123,-89,22
,1147,2018/03/15 17:20:46.81,-2284,11187,-11718,39,168,-38,87,-129,-125,-103,-24
,1148,2018/03/15 17:20:46.83,-2270,11137,-11718,-37,78,32,155,-115,-123,-20,-93
,1149,2018/03/15 17:20:46.85,-2350,11180,-11703,-88,34,22,146,-122,-124,27,-84
,1150,2018/03/15 17:20:46.87,-2258,11226,-11623,-36,86,-44,67,-122,-111,-25,-11
,1151,2018/03/15 17:20:46.89,-2341,11220,-11643,47,167,-73,41,-120,-114,-107,16
,1152,2018/03/15 17:20:46.91,-2321,11187,-11614,34,150,-18,100,-116,-118,-92,-41
,1153,2018/03/15 17:20:46.93,-2326,11225,-11667,-53,57,41,160,-110,-119,-2,-100
,1154,2018/03/15 17:20:46.95,-2307,11222,-11656,-82,36,16,140,-118,-124,23,-78
,1155,2018/03/15 17:20:46.97,-2271,11288,-11731,-16,111,-61,58,-127,-119,-47,1
,1156,2018/03/15 17:20:46.99,-2226,11126,-11729,44,171,-76,44,-127,-120,-107,16
,1157,2018/03/15 17:20:47.01,-2283,11194,-11691,11,130,-13,117,-119,-130,-70,-52
,1158,2018/03/15 17:20:47.03,-2302,11093,-11648,-79,46,28,158,-125,-130,16,-93
,1159,2018/03/15 17:20:47.05,-2272,11132,-11718,-88,36,-5,118,-124,-123,26,-56
,1160,2018/03/15 17:20:47.07,-2280,11096,-11690,-4,125,-73,46,-129,-119,-60,13
,1161,2018/03/15 17:20:47.09,-2244,11142,-11700,49,174,-71,54,-125,-125,-111,8
,1162,2018/03/15 17:20:47.11,-2279,11089,-11760,-14,110,0,135,-124,-135,-48,-67
,1163,2018/03/15 17:20:47.13,-2197,11136,-11737,-82,43,38,168,-125,-130,19,-103
,1164,2018/03/15 17:20:47.15,-2212,11135,-11767,-69,57,-15,105,-126,-120,6,-45
,1165,2018/03/15 17:20:47.17,-2261,11073,-11748,3,139,-87,40,-136,-127,-71,23
,1166,2018/03/15 17:20:47.19,-2277,11036,-11729,28,154,-60,67,-126,-127,-91,-3
,1167,2018/03/15 17:20:47.21,-2279,11025,-11769,-29,90,18,143,-119,-125,-30,-80
,1168,2018/03/15 17:20:47.23,-2322,11005,-11651,-84,38,38,169,-122,-131,23,-103
,1169,2018/03/15 17:20:47.25,-2318,11009,-11679,-54,74,-42,80,-128,-122,-10,-19
,1170,2018/03/15 17:20:47.27,-2289,11161,-11708,14,147,-91,35,-133,-126,-80,28
,1171,2018/03/15 17:20:47.29,-2285,11202,-11697,30,156,-47,75,-126,-122,-93,-14
,1172,2018/03/15 17:20:47.31,-2247,11244,-11707,-43,72,29,156,-115,-127,-14,-92
,1173,2018/03/15 17:20:47.33,-2316,11207,-11717,-95,38,10,154,-133,-144,28,-82
,1174,2018/03/15 17:20:47.35,-2256,11183,-11638,-54,102,-70,90,-156,-160,-24,-10
,1175,2018/03/15 17:20:47.37,-2267,11213,-11683,3,185,-118,58,-182,-176,-94,30
,1176,2018/03/15 17:20:47.39,-2257,11174,-11631,-12,161,-60,117,-173,-177,-74,-28
,1177,2018/03/15 17:20:47.41,-2323,11171,-11716,-80,84,20,180,-164,-160,-2,-100
,1178,2018/03/15 17:20:47.43,-2263,11138,-11760,-99,57,-2,159,-156,-161,21,-78
,1179,2018/03/15 17:20:47.45,-2277,11094,-11698,-39,126,-82,67,-165,-149,-43,7
,1180,2018/03/15 17:20:47.47,-2231,11244,-11587,23,174,-96,54,-151,-150,-98,21
,1181,2018/03/15 17:20:47.49,-2272,11177,-11714,-9,140,-29,121,-149,-150,-65,-46
,1182,2018/03/15 17:20:47.51,-2235,11129,-11766,-88,53,25,171,-141,-146,17,-98
,1183,2018/03/15 17:20:47.53,-2242,11129,-11676,-93,48,-21,122,-141,-143,22,-50
,1184,2018/03/15 17:20:47.55,-2233,11095,-11629,-29,120,-98,35,-149,-133,-45,31
,1185,2018/03/15 17:20:47.57,-2156,11075,-11659,28,159,-95,37,-131,-132,-93,29
,1186,2018/03/15 17:20:47.59,-2324,11128,-11653,-27,105,-18,122,-132,-140,-39,-52
,1187,2018/03/15 17:20:47.61,-2282,11219,-11686,-86,53,30,170,-139,-140,16,-100
,1188,2018/03/15 17:20:47.63,-2167,11196,-11717,-80,46,-26,89,-126,-115,17,-31
,1189,2018/03/15 17:20:47.65,-2110,11141,-11679,1,127,-94,29,-126,-123,-64,32
,1190,2018/03/15 17:20:47.67,-2181,11112,-11668,32,160,-69,63,-128,-132,-96,3
,1191,2018/03/15 17:20:47.69,-2194,10948,-11641,-31,101,16,154,-132,-138,-35,-85
,1192,2018/03/15 17:20:47.71,-2120,10889,-11556,-86,41,32,160,-127,-128,22,-96
,1193,2018/03/15 17:20:47.73,-2125,10975,-11614,-57,65,-32,79,-122,-111,-4,-23
,1194,2018/03/15 17:20:47.75,-1930,11067,-11613,26,147,-82,34,-121,-116,-86,24
,1195,2018/03/15 17:20:47.77,-1896,11085,-11705,30,151,-52,75,-121,-127,-90,-11
,1196,2018/03/15 17:20:47.79,-1721,11295,-11725,-48,70,19,146,-118,-127,-11,-82
,1197,2018/03/15 17:20:47.81,-1701,11360,-11662,-97,24,10,132,-121,-122,36,-71
,1198,2018/03/15 17:20:47.83,-1617,11396,-11766,-60,64,-75,43,-124,-118,-2,16
,1199,2018/03/15 17:20:47.85,-1686,11414,-11732,7,132,-102,14,-125,-116,-69,44
,1200,2018/03/15 17:20:47.87,-1533,11444,-11750,10,124,-40,78,-114,-118,-67,-19
,1201,2018/03/15 17:20:47.89,-1487,11451,-11708,-64,48,35,147,-112,-112,8,-91
,1202,2018/03/15 17:20:47.91,-1418,11469,-11759,-82,24,19,128,-106,-109,29,-73
,1203,2018/03/15 17:20:47.93,-1357,11529,-11709,-16,98,-52,48,-114,-100,-41,2
,1204,2018/03/15 17:20:47.95,-1325,11545,-11841,50,158,-74,36,-108,-110,-104,19
,1205,2018/03/15 17:20:47.97,-1346,11578,-11763,10,120,-10,106,-110,-116,-65,-48
,1206,2018/03/15 17:20:47.99,-1369,11536,-11685,-76,31,40,156,-107,-116,22,-98
,1207,2018/03/15 17:20:48.01,-1426,11452,-11678,-93,20,-14,104,-113,-118,36,-45
,1208,2018/03/15 17:20:48.03,-1440,11343,-11672,-29,99,-101,20,-128,-121,-35,40
,1209,2018/03/15 17:20:48.05,-1414,11195,-11708,28,148,-86,37,-120,-123,-88,24
,1210,2018/03/15 17:20:48.07,-1499,11131,-11688,-19,107,1,132,-126,-131,-44,-66
,1211,2018/03/15 17:20:48.09,-1528,11122,-11699,-73,43,49,168,-116,-119,15,-108
,1212,2018/03/15 17:20:48.11,-1435,11116,-11737,-67,51,-24,93,-118,-117,8,-34
,1213,2018/03/15 17:20:48.13,-1451,11195,-11727,-8,118,-100,14,-126,-114,-55,43
,1214,2018/03/15 17:20:48.15,-1487,11174,-11718,30,144,-74,39,-114,-113,-87,17
,1215,2018/03/15 17:20:48.17,-1520,11306,-11650,-33,79,9,140,-112,-131,-23,-74
,1216,2018/03/15 17:20:48.19,-1496,11252,-11700,-93,32,31,157,-125,-126,30,-94
,1217,2018/03/15 17:20:48.21,-1490,11274,-11749,-63,62,-35,81,-125,-116,0,-23
,1218,2018/03/15 17:20:48.23,-1528,11294,-11759,26,148,-82,33,-122,-115,-87,24
,1219,2018/03/15 17:20:48.25,-1483,11292,-11759,45,161,-36,82,-116,-118,-103,-23
,1220,2018/03/15 17:20:48.27,-1524,11266,-11708,-32,81,33,155,-113,-122,-24,-94
,1221,2018/03/15 17:20:48.29,-1456,11278,-11713,-90,26,22,135,-116,-113,32,-78
,1222,2018/03/15 17:20:48.31,-1440,11265,-11718,-54,61,-64,47,-115,-111,-3,8
,1223,2018/03/15 17:20:48.33,-1418,11256,-11735,21,144,-92,24,-123,-116,-82,34
,1224,2018/03/15 17:20:48.35,-1484,11221,-11714,25,138,-31,90,-113,-121,-81,-29
,1225,2018/03/15 17:20:48.37,-1436,11257,-11727,-58,58,34,158,-116,-124,0,-96
,1226,2018/03/15 17:20:48.39,-1438,11159,-11807,-80,40,8,130,-120,-122,20,-69
,1227,2018/03/15 17:20:48.41,-1446,11151,-11774,-32,97,-69,44,-129,-113,-32,12
,1228,2018/03/15 17:20:48.43,-1463,11129,-11720,52,175,-70,52,-123,-122,-113,9
,1229,2018/03/15 17:20:48.45,-1369,11144,-11758,13,137,-6,117,-124,-123,-75,-55
,1230,2018/03/15 17:20:48.47,-1421,11237,-11813,-62,54,51,173,-116,-122,4,-112
,1231,2018/03/15 17:20:48.49,-1412,11242,-11860,-72,48,5,119,-120,-114,12,-62
,1232,2018/03/15 17:20:48.51,-1375,11255,-11857,-6,118,-79,44,-124,-123,-56,17
,1233,2018/03/15 17:20:48.53,-1417,11289,-11866,33,161,-91,29,-128,-120,-97,31
,1234,2018/03/15 17:20:48.55,-1390,11349,-11799,-41,73,-50,64,-114,-114,-16,-7
,1235,2018/03/15 17:20:48.57,-1447,11341,-11845,-143,-42,-31,75,-101,-106,92,-22
,1236,2018/03/15 17:20:48.59,-1492,11340,-11775,-139,-35,-76,17,-104,-93,87,29
,1237,2018/03/15 17:20:48.61,-1521,11302,-11809,-33,63,-103,-19,-96,-84,-15,61
,1238,2018/03/15 17:20:48.63,-1579,11220,-11825,34,128,-63,35,-94,-98,-81,14
,1239,2018/03/15 17:20:48.65,-1618,11084,-11805,-18,76,26,128,-94,-102,-29,-77
,1240,2018/03/15 17:20:48.67,-1611,11073,-11787,-71,26,58,157,-97,-99,22,-107
,1241,2018/03/15 17:20:48.69,-1671,11090,-11756,-35,68,-10,94,-103,-104,-16,-42
,1242,2018/03/15 17:20:48.71,-1735,10978,-11734,41,158,-77,36,-117,-113,-99,20
,1243,2018/03/15 17:20:48.73,-1703,11034,-11736,47,162,-30,83,-115,-113,-104,-26
,1244,2018/03/15 17:20:48.75,-1768,11020,-11711,-15,90,61,174,-105,-113,-37,-117
,1245,2018/03/15 17:20:48.77,-1745,10995,-11799,-66,40,41,147,-106,-106,13,-94
,1246,2018/03/15 17:20:48.79,-1675,11041,-11788,-35,74,-34,66,-109,-100,-19,-16
,1247,2018/03/15 17:20:48.81,-1749,11046,-11804,39,147,-82,23,-108,-105,-93,29
,1248,2018/03/15 17:20:48.83,-1828,11103,-11769,29,128,-19,89,-99,-108,-78,-35
,1249,2018/03/15 17:20:48.85,-1782,11119,-11840,-41,61,58,169,-102,-111,-10,-113
,1250,2018/03/15 17:20:48.87,-1754,11029,-11818,-68,40,39,148,-108,-109,14,-93
,1251,2018/03/15 17:20:48.89,-1881,11006,-11832,0,118,-41,72,-118,-113,-59,-15
,1252,2018/03/15 17:20:48.91,-1827,11042,-11723,54,175,-79,37,-121,-116,-114,21
,1253,2018/03/15 17:20:48.93,-1812,11076,-11761,13,132,-16,107,-119,-123,-72,-45
,1254,2018/03/15 17:20:48.95,-1858,11108,-11791,-80,36,26,146,-116,-120,22,-86
,1255,2018/03/15 17:20:48.97,-1861,11165,-11820,-93,20,-10,103,-113,-113,36,-46
,1256,2018/03/15 17:20:48.99,-1800,11188,-11840,-18,105,-84,39,-123,-123,-43,22
,1257,2018/03/15 17:20:49.01,-1810,11202,-11794,36,164,-78,41,-128,-119,-100,18
,1258,2018/03/15 17:20:49.03,-1899,11228,-11760,-7,108,-1,123,-115,-124,-50,-61
,1259,2018/03/15 17:20:49.05,-1850,11161,-11790,-82,33,38,158,-115,-120,24,-98
,1260,2018/03/15 17:20:49.07,-1870,11062,-11809,-77,40,-24,89,-117,-113,18,-32
,1261,2018/03/15 17:20:49.09,-1997,11102,-11694,6,127,-83,28,-121,-111,-66,27
,1262,2018/03/15 17:20:49.11,-1927,11130,-11737,41,151,-61,48,-110,-109,-96,6
,1263,2018/03/15 17:20:49.13,-1932,11120,-11813,-25,83,13,130,-108,-117,-29,-71
,1264,2018/03/15 17:20:49.15,-1970,11132,-11760,-87,26,36,151,-113,-115,30,-93
,1265,2018/03/15 17:20:49.17,-1968,11092,-11750,-59,58,-36,85,-117,-121,0,-24
,1266,2018/03/15 17:20:49.19,-1897,11108,-11802,20,152,-90,35,-132,-125,-86,27
,1267,2018/03/15 17:20:49.21,-1969,11069,-11768,42,169,-52,76,-127,-128,-105,-12
,1268,2018/03/15 17:20:49.23,-1932,11174,-11775,-40,81,26,152,-121,-126,-20,-89
,1269,2018/03/15 17:20:49.25,-1897,11121,-11782,-78,41,39,158,-119,-119,18,-98
,1270,2018/03/15 17:20:49.27,-1921,11200,-11785,-33,88,-44,69,-121,-113,-27,-12
,1271,2018/03/15 17:20:49.29,-1914,11159,-11770,42,158,-80,32,-116,-112,-100,24
,1272,2018/03/15 17:20:49.31,-1903,11188,-11775,26,139,-32,84,-113,-116,-82,-26
,1273,2018/03/15 17:20:49.33,-1971,11188,-11822,-56,50,35,146,-106,-111,3,-90
,1274,2018/03/15 17:20:49.35,-2021,11155,-11750,-86,27,20,136,-113,-116,29,-78
,1275,2018/03/15 17:20:49.37,-2024,11177,-11771,-24,97,-64,47,-121,-111,-36,8
,1276,2018/03/15 17:20:49.39,-2003,11081,-11782,40,155,-81,31,-115,-112,-97,25
,1277,2018/03/15 17:20:49.41,-2003,11098,-11800,10,128,-12,114,-118,-126,-69,-51
,1278,2018/03/15 17:20:49.43,-2007,11027,-11745,-60,58,52,171,-118,-119,1,-111
,1279,2018/03/15 17:20:49.45,-1900,11058,-11766,-68,45,9,120,-113,-111,11,-64
,1280,2018/03/15 17:20:49.47,-1993,11069,-11744,-1,119,-69,48,-120,-117,-59,10
,1281,2018/03/15 17:20:49.49,-1995,11097,-11765,41,166,-80,41,-125,-121,-103,19
,1282,2018/03/15 17:20:49.51,-1976,11093,-11765,-14,102,-9,112,-116,-121,-44,-51
,1283,2018/03/15 17:20:49.53,-1969,11186,-11748,-89,25,32,150,-114,-118,32,-91
,1284,2018/03/15 17:20:49.55,-2042,11136,-11745,-74,38,-14,94,-112,-108,18,-40
,1285,2018/03/15 17:20:49.57,-1985,11136,-11796,8,128,-90,26,-120,-116,-68,32
,1286,2018/03/15 17:20:49.59,-1977,11160,-11743,23,144,-88,29,-121,-117,-83,29
,1287,2018/03/15 17:20:49.61,-2033,11151,-11733,-62,43,-35,73,-105,-108,9,-19
,1288,2018/03/15 17:20:49.63,-2004,11128,-11779,-157,-59,-56,45,-98,-101,108,5
,1289,2018/03/15 17:20:49.65,-1941,11095,-11805,-172,-71,-152,-53,-101,-99,121,102
,1290,2018/03/15 17:20:49.67,-2090,11126,-11799,-103,1,-196,-98,-104,-98,51,147
,1291,2018/03/15 17:20:49.69,-1984,11142,-11640,-73,35,-134,-19,-108,-115,19,76
,1292,2018/03/15 17:20:49.71,-2064,11155,-11671,-116,0,-26,99,-116,-125,58,-36
,1293,2018/03/15 17:20:49.73,-2005,11147,-11790,-125,-3,7,133,-122,-126,64,-70
,1294,2018/03/15 17:20:49.75,-2071,11214,-11751,-48,83,-40,83,-131,-123,-17,-21
,1295,2018/03/15 17:20:49.77,-1959,11203,-11760,57,186,-48,69,-129,-117,-121,-10
,1296,2018/03/15 17:20:49.79,-1953,11246,-11749,67,187,11,144,-120,-133,-127,-77
,1297,2018/03/15 17:20:49.81,-1970,11195,-11717,-11,121,82,221,-132,-139,-55,-151
,1298,2018/03/15 17:20:49.83,-2060,11179,-11758,-36,95,72,196,-131,-124,-29,-134
,1299,2018/03/15 17:20:49.85,-1933,11160,-11774,34,156,-9,105,-122,-114,-95,-48
,1300,2018/03/15 17:20:49.87,-2009,11110,-11706,87,210,-39,90,-123,-129,-148,-25
,1301,2018/03/15 17:20:49.89,-2047,11095,-11746,52,183,21,157,-131,-136,-117,-89
,1302,2018/03/15 17:20:49.91,-2062,11116,-11751,-36,93,75,203,-129,-128,-28,-139
,1303,2018/03/15 17:20:49.93,-2124,11077,-11744,-41,81,40,161,-122,-121,-20,-100
,1304,2018/03/15 17:20:49.95,-1991,11076,-11721,25,157,-45,80,-132,-125,-91,-17
,1305,2018/03/15 17:20:49.97,-1957,11122,-11791,73,200,-36,86,-127,-122,-136,-25
,1306,2018/03/15 17:20:49.99,-1989,11087,-11780,32,149,30,156,-117,-126,-90,-93
,1307,2018/03/15 17:20:50.01,-1988,11168,-11759,-53,71,64,194,-124,-130,-9,-129
,1308,2018/03/15 17:20:50.03,-1984,11155,-11789,-34,87,8,126,-121,-118,-26,-67
,1309,2018/03/15 17:20:50.05,-2005,11156,-11772,18,152,-76,46,-134,-122,-85,15
,1310,2018/03/15 17:20:50.07,-2085,11124,-11818,53,179,-51,73,-126,-124,-116,-11
,1311,2018/03/15 17:20:50.09,-2005,11097,-11762,-18,101,25,149,-119,-124,-41,-87
,1312,2018/03/15 17:20:50.11,-2008,11151,-11768,-73,41,49,165,-114,-116,16,-107
,1313,2018/03/15 17:20:50.13,-1995,11206,-11756,-48,73,-24,92,-121,-116,-12,-34
,1314,2018/03/15 17:20:50.15,-2036,11192,-11836,23,150,-87,33,-127,-120,-86,27
,1315,2018/03/15 17:20:50.17,-2087,11189,-11778,31,153,-48,82,-122,-130,-92,-17
,1316,2018/03/15 17:20:50.19,-2034,11164,-11755,-37,88,27,157,-125,-130,-25,-92
,1317,2018/03/15 17:20:50.21,-1899,11097,-11724,-84,38,28,152,-122,-124,23,-90
,1318,2018/03/15 17:20:50.23,-2005,11099,-11767,-45,84,-53,73,-129,-126,-19,-10
,1319,2018/03/15 17:20:50.25,-1983,11040,-11756,27,163,-91,42,-136,-133,-95,24
,1320,2018/03/15 17:20:50.27,-1993,11070,-11749,17,152,-40,99,-135,-139,-84,-29
,1321,2018/03/15 17:20:50.29,-2034,11150,-11776,-61,75,23,165,-136,-142,-7,-94
,1322,2018/03/15 17:20:50.31,-2093,11172,-11726,-91,41,17,145,-132,-128,25,-81
,1323,2018/03/15 17:20:50.33,-1993,11122,-11778,-22,113,-54,73,-135,-127,-45,-9
,1324,2018/03/15 17:20:50.35,-1946,11118,-11764,45,180,-76,54,-135,-130,-112,11
,1325,2018/03/15 17:20:50.37,-1961,11120,-11833,15,142,-12,121,-127,-133,-78,-54
,1326,2018/03/15 17:20:50.39,-1991,11073,-11722,-58,65,49,175,-123,-126,-3,-112
,1327,2018/03/15 17:20:50.41,-1982,11110,-11692,-68,54,12,131,-122,-119,7,-71
,1328,2018/03/15 17:20:50.43,-2054,11098,-11685,-2,124,-64,61,-126,-125,-61,1
,1329,2018/03/15 17:20:50.45,-2025,11156,-11762,39,172,-76,56,-133,-132,-105,10
,1330,2018/03/15 17:20:50.47,-2077,11232,-11757,-10,111,-7,128,-121,-135,-50,-60
,1331,2018/03/15 17:20:50.49,-2006,11266,-11748,-83,43,31,160,-126,-129,20,-95
,1332,2018/03/15 17:20:50.51,-2054,11277,-11765,-70,57,-16,112,-127,-128,6,-48
,1333,2018/03/15 17:20:50.53,-2058,11133,-11836,3,138,-84,44,-135,-128,-70,20
,1334,2018/03/15 17:20:50.55,-2098,11083,-11806,33,169,-70,71,-136,-141,-101,0
,1335,2018/03/15 17:20:50.57,-2065,11110,-11644,-30,107,5,143,-137,-138,-38,-74
,1336,2018/03/15 17:20:50.59,-2129,11195,-11623,-87,36,40,165,-123,-125,25,-102
,1337,2018/03/15 17:20:50.61,-2003,11157,-11705,-48,82,-22,107,-130,-129,-17,-42
,1338,2018/03/15 17:20:50.63,-1999,11161,-11817,19,152,-89,33,-133,-122,-85,28
,1339,2018/03/15 17:20:50.65,-2022,11207,-11763,28,155,-56,77,-127,-133,-91,-10
,1340,2018/03/15 17:20:50.67,-2040,11153,-11748,-44,85,21,159,-129,-138,-20,-90
,1341,2018/03/15 17:20:50.69,-2011,11153,-11726,-91,40,17,147,-131,-130,25,-82
,1342,2018/03/15 17:20:50.71,-2014,11133,-11751,-55,79,-57,69,-134,-126,-12,-6
,1343,2018/03/15 17:20:50.73,-2012,11094,-11751,26,160,-87,42,-134,-129,-93,22
,1344,2018/03/15 17:20:50.75,-2047,11145,-11773,19,151,-42,94,-132,-136,-85,-26
,1345,2018/03/15 17:20:50.77,-1989,11104,-11737,-64,66,28,166,-130,-138,-1,-97
,1346,2018/03/15 17:20:50.79,-2045,11087,-11751,-79,54,27,157,-133,-130,12,-92
,1347,2018/03/15 17:20:50.81,-2047,11100,-11718,-12,127,-48,92,-139,-140,-57,-22
,1348,2018/03/15 17:20:50.83,-2014,11050,-11724,48,197,-73,65,-149,-138,-122,4
,1349,2018/03/15 17:20:50.85,-2018,11129,-11793,18,152,-20,121,-134,-141,-85,-50
,1350,2018/03/15 17:20:50.87,-1969,11170,-11797,-64,74,42,188,-138,-146,-5,-115
,1351,2018/03/15 17:20:50.89,-1985,11133,-11846,-73,80,-2,151,-153,-153,-3,-74
,1352,2018/03/15 17:20:50.91,-2017,11188,-11763,-25,129,-83,64,-154,-147,-52,9
,1353,2018/03/15 17:20:50.93,-2009,11164,-11829,31,181,-80,67,-150,-147,-106,6
,1354,2018/03/15 17:20:50.95,-2032,11195,-11795,-16,126,-10,131,-142,-141,-55,-60
,1355,2018/03/15 17:20:50.97,-1946,11161,-11834,-74,53,41,182,-127,-141,10,-111
,1356,2018/03/15 17:20:50.99,-1954,11238,-11851,-65,79,-9,130,-144,-139,-7,-60
,1357,2018/03/15 17:20:51.01,-2020,11223,-11861,11,152,-77,56,-141,-133,-81,10
,1358,2018/03/15 17:20:51.03,-2004,11260,-11836,37,182,-62,86,-145,-148,-109,-12
,1359,2018/03/15 17:20:51.05,-2004,11222,-11867,-16,120,20,154,-136,-134,-52,-87
,1360,2018/03/15 17:20:51.07,-2021,11201,-11828,-72,52,41,180,-124,-139,10,-110
,1361,2018/03/15 17:20:51.09,-2044,11130,-11769,-53,90,-19,106,-143,-125,-18,-43
,1362,2018/03/15 17:20:51.11,-2039,11123,-11804,24,160,-87,45,-136,-132,-92,21
,1363,2018/03/15 17:20:51.13,-2083,11140,-11880,25,150,-54,54,-125,-108,-87,0
,1364,2018/03/15 17:20:51.15,-2103,11044,-11921,-40,63,25,137,-103,-112,-11,-81
,1365,2018/03/15 17:20:51.17,-2026,11053,-11914,-81,21,30,136,-102,-106,30,-83
,1366,2018/03/15 17:20:51.19,-2039,10943,-11972,-44,71,-46,68,-115,-114,-13,-11
,1367,2018/03/15 17:20:51.21,-2043,10988,-11938,32,152,-91,26,-120,-117,-92,32
,1368,2018/03/15 17:20:51.23,-2110,10923,-12013,13,141,-45,88,-128,-133,-77,-21
,1369,2018/03/15 17:20:51.25,-2076,11060,-11983,-63,58,31,158,-121,-127,2,-94
,1370,2018/03/15 17:20:51.27,-2051,11076,-12057,-95,28,14,136,-123,-122,33,-75
,1371,2018/03/15 17:20:51.29,-2020,11053,-12140,-19,98,-63,54,-117,-117,-39,4
,1372,2018/03/15 17:20:51.31,-2112,11172,-12095,20,155,-96,32,-135,-128,-87,32
,1373,2018/03/15 17:20:51.33,-2116,11254,-11966,6,125,-25,101,-119,-126,-65,-38
,1374,2018/03/15 17:20:51.35,-2044,11227,-12001,-85,28,27,157,-113,-130,28,-92
,1375,2018/03/15 17:20:51.37,-2116,11286,-12037,-96,31,-10,113,-127,-123,32,-51
,1376,2018/03/15 17:20:51.39,-2196,11354,-12115,-27,101,-98,25,-128,-123,-37,36
,1377,2018/03/15 17:20:51.41,-2248,11454,-12080,10,147,-115,18,-137,-133,-78,48
,1378,2018/03/15 17:20:51.43,-2271,11588,-12020,-48,84,-43,97,-132,-140,-18,-27
,1379,2018/03/15 17:20:51.45,-2315,11301,-11988,-128,8,-10,140,-136,-150,60,-65
,1380,2018/03/15 17:20:51.47,-2386,11185,-12231,-134,15,-82,64,-149,-146,59,9
,1381,2018/03/15 17:20:51.49,-2379,11223,-12106,-65,80,-172,-41,-145,-131,-7,106
,1382,2018/03/15 17:20:51.51,-2403,11179,-12224,-58,76,-186,-59,-134,-127,-9,122
,1383,2018/03/15 17:20:51.53,-2309,11029,-12229,-159,-37,-126,2,-122,-128,98,62
,1384,2018/03/15 17:20:51.55,-2287,10901,-12388,-231,-111,-99,26,-120,-125,171,36
,1385,2018/03/15 17:20:51.57,-2273,10606,-12485,-200,-84,-186,-79,-116,-107,142,132
,1386,2018/03/15 17:20:51.59,-2280,10291,-12434,-136,-19,-258,-155,-117,-103,77,206
,1387,2018/03/15 17:20:51.61,-2106,10301,-12447,-148,-43,-293,-193,-105,-100,95,243
,1388,2018/03/15 17:20:51.63,-2094,10205,-12566,-352,-264,-378,-294,-88,-84,308,336
,1389,2018/03/15 17:20:51.65,-2123,9997,-12941,-541,-468,-542,-458,-73,-84,504,500
,1390,2018/03/15 17:20:51.67,-2044,9881,-12919,-672,-579,-741,-640,-93,-101,625,690
,1391,2018/03/15 17:20:51.69,-2131,9604,-13002,-761,-650,-834,-727,-111,-107,705,780
,1392,2018/03/15 17:20:51.71,-2222,9612,-13127,-790,-678,-829,-724,-112,-105,734,776
,1393,2018/03/15 17:20:51.73,-2404,9537,-13265,-826,-724,-783,-681,-102,-102,775,732
,1394,2018/03/15 17:20:51.75,-2472,9426,-13194,-830,-735,-768,-665,-95,-103,782,716
,1395,2018/03/15 17:20:51.77,-2430,9210,-13161,-797,-691,-798,-690,-106,-108,744,744
,1396,2018/03/15 17:20:51.79,-2635,8882,-13247,-744,-636,-774,-677,-108,-97,690,725
,1397,2018/03/15 17:20:51.81,-2919,8924,-13326,-686,-585,-751,-646,-101,-105,635,698
,1398,2018/03/15 17:20:51.83,-3140,8575,-13444,-817,-714,-777,-672,-103,-105,765,724
,1399,2018/03/15 17:20:51.85,-3202,8507,-13197,-800,-697,-720,-614,-103,-106,748,667
,1400,2018/03/15 17:20:51.87,-3249,8263,-13156,-739,-633,-750,-647,-106,-103,686,698
,1401,2018/03/15 17:20:51.89,-3235,8152,-13281,-719,-618,-832,-739,-101,-93,668,785
,1402,2018/03/15 17:20:51.91,-2978,8270,-13258,-845,-751,-881,-785,-94,-96,798,833
,1403,2018/03/15 17:20:51.93,-2891,8224,-13391,-892,-800,-820,-719,-92,-101,846,769
,1404,2018/03/15 17:20:51.95,-2603,8152,-13604,-857,-759,-780,-686,-98,-94,808,733
,1405,2018/03/15 17:20:51.97,-2484,7928,-13839,-750,-653,-748,-657,-97,-91,701,702
,1406,2018/03/15 17:20:51.99,-2410,7615,-14143,-658,-563,-701,-604,-95,-97,610,652
,1407,2018/03/15 17:20:52.01,-2380,7498,-14205,-628,-527,-566,-451,-101,-115,577,508
,1408,2018/03/15 17:20:52.03,-2326,7487,-14121,-521,-396,-385,-248,-125,-137,458,316
,1409,2018/03/15 17:20:52.05,-2180,7354,-14164,-376,-239,-285,-156,-137,-129,307,220
,1410,2018/03/15 17:20:52.07,-2074,7256,-14220,-224,-94,-220,-89,-130,-131,159,154
,1411,2018/03/15 17:20:52.09,-1909,7091,-14229,-97,28,-124,2,-125,-126,34,61
,1412,2018/03/15 17:20:52.11,-1870,6854,-14403,-71,55,-24,103,-126,-127,8,-39
,1413,2018/03/15 17:20:52.13,-1809,6540,-14604,-65,63,43,178,-128,-135,1,-110
,1414,2018/03/15 17:20:52.15,-1786,6211,-14247,0,128,16,140,-128,-124,-64,-78
,1415,2018/03/15 17:20:52.17,-1716,5978,-14296,50,173,-26,80,-123,-106,-111,-27
,1416,2018/03/15 17:20:52.19,-1776,6097,-14176,50,146,-2,86,-96,-88,-98,-42
,1417,2018/03/15 17:20:52.21,-1791,6245,-14377,12,95,56,134,-83,-78,-53,-95
,1418,2018/03/15 17:20:52.23,-1895,6578,-14366,-7,63,76,150,-70,-74,-28,-113
,1419,2018/03/15 17:20:52.25,-2098,6947,-14188,55,131,81,155,-76,-74,-93,-118
,1420,2018/03/15 17:20:52.27,-2191,7196,-14252,142,221,94,160,-79,-66,-181,-127
,1421,2018/03/15 17:20:52.29,-2299,7382,-14322,164,233,135,214,-69,-79,-198,-174
,1422,2018/03/15 17:20:52.31,-2462,7537,-14239,127,207,172,261,-80,-89,-167,-216
,1423,2018/03/15 17:20:52.33,-2611,7671,-14199,117,197,171,261,-80,-90,-157,-216
,1424,2018/03/15 17:20:52.35,-2762,7851,-14303,138,242,124,224,-104,-100,-190,-174
,1425,2018/03/15 17:20:52.37,-2979,8113,-13876,184,288,130,235,-104,-105,-236,-182
,1426,2018/03/15 17:20:52.39,-3241,8329,-14114,173,281,148,259,-108,-111,-227,-203
,1427,2018/03/15 17:20:52.41,-3292,8606,-13956,125,231,174,283,-106,-109,-178,-228
,1428,2018/03/15 17:20:52.43,-3323,8665,-14106,112,224,153,266,-112,-113,-168,-209
,1429,2018/03/15 17:20:52.45,-3053,8587,-14340,141,260,113,228,-119,-115,-200,-170
,1430,2018/03/15 17:20:52.47,-3329,8298,-13919,159,282,103,230,-123,-127,-220,-166
,1431,2018/03/15 17:20:52.49,-3427,8248,-13488,151,278,145,265,-127,-120,-214,-205
,1432,2018/03/15 17:20:52.51,-3731,8354,-13451,109,227,149,272,-118,-123,-168,-210
,1433,2018/03/15 17:20:52.53,-3966,8710,-13082,92,228,126,264,-136,-138,-160,-195
,1434,2018/03/15 17:20:52.55,-4165,9060,-13213,140,277,106,248,-137,-142,-208,-177
,1435,2018/03/15 17:20:52.57,-4400,9115,-13111,154,305,118,265,-151,-147,-229,-191
,1436,2018/03/15 17:20:52.59,-4420,9143,-13135,126,277,116,273,-151,-157,-201,-194
,1437,2018/03/15 17:20:52.61,-4513,9272,-13174,77,221,124,266,-144,-142,-149,-195
,1438,2018/03/15 17:20:52.63,-4469,9593,-13123,89,232,100,244,-143,-144,-160,-172
,1439,2018/03/15 17:20:52.65,-4331,9874,-13131,112,262,74,223,-150,-149,-187,-148
,1440,2018/03/15 17:20:52.67,-4239,9911,-13325,112,264,81,229,-152,-148,-188,-155
,1441,2018/03/15 17:20:52.69,-4077,9676,-13211,85,222,94,234,-137,-140,-153,-164
,1442,2018/03/15 17:20:52.71,-4091,9388,-13029,44,186,72,213,-142,-141,-115,-142
,1443,2018/03/15 17:20:52.73,-3918,9138,-13000,37,178,24,158,-141,-134,-107,-91
,1444,2018/03/15 17:20:52.75,-3462,9363,-12450,20,153,-36,102,-133,-138,-86,-33
,1445,2018/03/15 17:20:52.77,-3489,8734,-13283,10,155,23,159,-145,-136,-82,-91
,1446,2018/03/15 17:20:52.79,-3713,8737,-12966,46,174,79,208,-128,-129,-110,-143
,1447,2018/03/15 17:20:52.81,-3568,8704,-13187,22,148,28,151,-126,-123,-85,-89
,1448,2018/03/15 17:20:52.83,-3390,8506,-13172,-33,96,-75,56,-129,-131,-31,9
,1449,2018/03/15 17:20:52.85,-3445,8614,-13168,-37,101,-25,108,-138,-133,-32,-41
,1450,2018/03/15 17:20:52.87,-3564,8746,-13073,84,209,150,262,-125,-112,-146,-206
,1451,2018/03/15 17:20:52.89,-3465,8702,-13367,189,288,239,338,-99,-99,-238,-288
,1452,2018/03/15 17:20:52.91,-3583,8829,-13263,165,263,149,247,-98,-98,-214,-198
,1453,2018/03/15 17:20:52.93,-3487,8503,-13555,114,206,66,147,-92,-81,-160,-106
,1454,2018/03/15 17:20:52.95,-3470,8648,-13194,70,144,-12,64,-74,-76,-107,-26
,1455,2018/03/15 17:20:52.97,-3843,8846,-13186,-48,34,-118,-34,-82,-84,7,76
,1456,2018/03/15 17:20:52.99,-3821,8680,-13300,-213,-131,-212,-124,-82,-88,172,168
,1457,2018/03/15 17:20:53.01,-4000,9053,-12847,-269,-177,-249,-170,-92,-79,223,209
,1458,2018/03/15 17:20:53.03,-3786,9257,-13511,-199,-142,-164,-136,-57,-28,170,150
,1459,2018/03/15 17:20:53.05,-3785,9142,-13420,-110,-97,-194,-185,-13,-9,103,189
,1460,2018/03/15 17:20:53.07,-3621,8712,-13439,-223,-230,-331,-358,7,27,226,344
,1461,2018/03/15 17:20:53.09,-3562,8825,-13177,-667,-717,-1034,-1099,50,65,692,1066
,1462,2018/03/15 17:20:53.11,-3265,8348,-13585,-1417,-1471,-1714,-1748,54,34,1444,1731
,1463,2018/03/15 17:20:53.13,-3382,8248,-13471,-1884,-1906,-1940,-1965,22,25,1895,1952
,1464,2018/03/15 17:20:53.15,-3287,8094,-13391,-1475,-1719,-378,-1360,244,982,1597,869
,1465,2018/03/15 17:20:53.17,-3586,8316,-13925,1517,-1222,1987,-1020,2739,3007,-147,-483
,1466,2018/03/15 17:20:53.19,-2964,7570,-13405,1936,-628,1752,166,2564,1586,-654,-959
,1467,2018/03/15 17:20:53.21,-3120,7514,-13706,1556,235,1504,-256,1321,1760,-895,-624
,1468,2018/03/15 17:20:53.23,-3182,7785,-13956,1296,-244,1449,54,1540,1395,-526,-751
,1469,2018/03/15 17:20:53.25,-3001,8023,-14344,1503,800,1529,1195,703,334,-1151,-1362
,1470,2018/03/15 17:20:53.27,-3046,8277,-14420,1599,1233,1529,1356,366,173,-1416,-1442
,1471,2018/03/15 17:20:53.29,-2792,7801,-14184,1646,1265,1649,1367,381,282,-1455,-1508
,1472,2018/03/15 17:20:53.31,-2732,7290,-14190,1634,1357,1684,958,277,726,-1495,-1321
,1473,2018/03/15 17:20:53.33,-2729,7354,-13946,1531,664,1328,136,867,1192,-1097,-732
,1474,2018/03/15 17:20:53.35,-2784,7354,-13947,1199,-104,1040,-14,1303,1054,-547,-513
,1475,2018/03/15 17:20:53.37,-2818,7598,-14128,1112,-165,1191,43,1277,1148,-473,-617
,1476,2018/03/15 17:20:53.39,-2642,7576,-13722,1583,22,1206,49,1561,1157,-802,-627
,1477,2018/03/15 17:20:53.41,-2652,6375,-15424,835,327,304,221,508,83,-581,-262
,1478,2018/03/15 17:20:53.43,-2608,8020,-13753,217,-111,70,-161,328,231,-53,45
,1479,2018/03/15 17:20:53.45,-2668,7706,-14144,-48,160,120,554,-208,-434,-56,-337
,1480,2018/03/15 17:20:53.47,-2451,8101,-13907,-59,767,68,659,-826,-591,-354,-363
,1481,2018/03/15 17:20:53.49,-2321,8489,-13871,24,537,-114,576,-513,-690,-280,-231
,1482,2018/03/15 17:20:53.51,-2457,8204,-13952,4,729,-201,426,-725,-627,-366,-112
,1483,2018/03/15 17:20:53.53,-2694,7036,-15057,-56,-39,-129,-234,-17,105,47,181
,1484,2018/03/15 17:20:53.55,-2620,7757,-13721,-280,-348,-278,-499,68,221,314,388
,1485,2018/03/15 17:20:53.57,-2877,7361,-13942,-586,-705,-761,-493,119,-268,645,627
,1486,2018/03/15 17:20:53.59,-2780,7283,-14145,-970,-231,-830,49,-739,-879,600,390
,1487,2018/03/15 17:20:53.61,-2762,6788,-14374,-299,561,-61,733,-860,-794,-131,-336
,1488,2018/03/15 17:20:53.63,-2689,6862,-14192,-662,1049,-1297,1063,-1711,-2360,-193,117
,1489,2018/03/15 17:20:53.65,-2727,7160,-14134,-1692,1053,-1902,1145,-2745,-3047,319,378
,1490,2018/03/15 17:20:53.67,-2646,7390,-14336,-1994,788,-2023,647,-2782,-2670,603,688
,1491,2018/03/15 17:20:53.69,-2621,7601,-14330,-1996,380,-1943,146,-2376,-2089,808,898
,1492,2018/03/15 17:20:53.71,-2654,7768,-14225,-1742,363,-1558,252,-2105,-1810,689,653
,1493,2018/03/15 17:20:53.73,-2678,8015,-14167,-1288,406,-1042,494,-1694,-1536,441,274
