// Data mode  : Standard
// Transmission speed  : 50Hz
// Accelerometer sensor's range  : 2g
// Gyroscope sensor's range  : 250dps
//
//ARTIFACT,NUM,DATE,ACC_X,ACC_Y,ACC_Z,EOG_L1,EOG_R1,EOG_L2,EOG_R2,EOG_H1,EOG_H2,EOG_V1,EOG_V2
,1,2018/03/15 17:53:56.16,-1414,11934,-10969,-49,68,-63,55,-117,-118,-9,4
,2,2018/03/15 17:53:56.18,-1417,11941,-10986,-38,66,-50,58,-104,-108,-14,-4
,3,2018/03/15 17:53:56.20,-1392,12018,-11015,-52,56,-51,64,-108,-115,-2,-6
,4,2018/03/15 17:53:56.22,-1338,12041,-11046,-56,62,-34,79,-118,-113,-3,-22
,5,2018/03/15 17:53:56.24,-1379,12028,-11068,-45,81,-39,77,-126,-116,-18,-19
,6,2018/03/15 17:53:56.26,-1393,11921,-11050,-38,72,-49,61,-110,-110,-17,-6
,7,2018/03/15 17:53:56.28,-1441,11891,-10983,-26,67,-34,68,-93,-102,-20,-17
,8,2018/03/15 17:53:56.30,-1425,11890,-10961,-28,76,-18,83,-104,-101,-24,-32
,9,2018/03/15 17:53:56.32,-1417,11907,-10999,-44,66,-30,71,-110,-101,-11,-20
,10,2018/03/15 17:53:56.34,-1367,11952,-11007,-32,67,-32,72,-99,-104,-17,-20
,11,2018/03/15 17:53:56.36,-1445,11959,-10997,-26,86,-41,77,-112,-118,-30,-18
,12,2018/03/15 17:53:56.38,-1493,11910,-11011,-36,68,-48,48,-104,-96,-16,0
,13,2018/03/15 17:53:56.40,-1474,11942,-10958,-46,38,-36,41,-84,-77,4,-2
,14,2018/03/15 17:53:56.42,-1561,11992,-10937,-46,38,-28,49,-84,-77,4,-10
,15,2018/03/15 17:53:56.44,-1364,11987,-10990,-30,57,-45,42,-87,-87,-13,1
,16,2018/03/15 17:53:56.46,-1391,12063,-11020,-38,41,-57,25,-79,-82,-1,16
,17,2018/03/15 17:53:56.48,-1324,12079,-11010,-46,30,-61,15,-76,-76,8,23
,18,2018/03/15 17:53:56.50,-1399,12129,-11005,-89,0,-71,17,-89,-88,44,27
,19,2018/03/15 17:53:56.52,-1396,12042,-10996,-76,10,-38,46,-86,-84,33,-4
,20,2018/03/15 17:53:56.54,-1425,11989,-11047,-16,67,-9,64,-83,-73,-25,-27
,21,2018/03/15 17:53:56.56,-1398,11924,-11019,3,69,-23,48,-66,-71,-36,-12
,22,2018/03/15 17:53:56.58,-1381,11945,-11034,-18,43,-24,48,-61,-72,-12,-12
,23,2018/03/15 17:53:56.60,-1367,11997,-10964,-36,38,-24,44,-74,-68,-1,-10
,24,2018/03/15 17:53:56.62,-1326,11956,-10983,-41,43,-24,57,-84,-81,-1,-16
,25,2018/03/15 17:53:56.64,-1338,12002,-10992,-25,58,-40,58,-83,-98,-16,-9
,26,2018/03/15 17:53:56.66,-1353,11976,-10964,-32,68,-54,44,-100,-98,-18,5
,27,2018/03/15 17:53:56.68,-1325,11960,-10968,-48,36,-34,45,-84,-79,6,-5
,28,2018/03/15 17:53:56.70,-1404,11978,-10990,-32,49,-13,73,-81,-86,-8,-30
,29,2018/03/15 17:53:56.72,-1284,11936,-11031,-26,70,-25,65,-96,-90,-22,-20
,30,2018/03/15 17:53:56.74,-1382,11940,-10979,-32,63,-46,48,-95,-94,-15,-1
,31,2018/03/15 17:53:56.76,-1287,12003,-11009,-31,52,-45,52,-83,-97,-10,-3
,32,2018/03/15 17:53:56.78,-1440,12022,-11043,-36,64,-33,62,-100,-95,-14,-14
,33,2018/03/15 17:53:56.80,-1442,12010,-11010,-56,47,-50,54,-103,-104,4,-2
,34,2018/03/15 17:53:56.82,-1407,11971,-11012,-61,45,-50,47,-106,-97,8,1
,35,2018/03/15 17:53:56.84,-1412,12032,-10983,-34,65,-21,81,-99,-102,-15,-30
,36,2018/03/15 17:53:56.86,-1510,11869,-11069,-6,84,-21,80,-90,-101,-39,-29
,37,2018/03/15 17:53:56.88,-1468,11805,-11089,-24,73,-28,72,-97,-100,-24,-22
,38,2018/03/15 17:53:56.90,-1414,11883,-10876,-47,60,-42,67,-107,-109,-6,-12
,39,2018/03/15 17:53:56.92,-1464,11874,-10952,-42,74,-47,64,-116,-111,-16,-8
,40,2018/03/15 17:53:56.94,-1442,11946,-11026,-47,72,-66,62,-119,-128,-12,2
,41,2018/03/15 17:53:56.96,-1326,12026,-11031,-56,67,-68,58,-123,-126,-5,5
,42,2018/03/15 17:53:56.98,-1378,12022,-11103,-67,52,-50,60,-119,-110,7,-5
,43,2018/03/15 17:53:57.00,-1361,12039,-11053,-59,54,-38,70,-113,-108,2,-16
,44,2018/03/15 17:53:57.02,-1410,12001,-11005,-42,74,-51,63,-116,-114,-16,-6
,45,2018/03/15 17:53:57.04,-1415,11994,-11013,-47,67,-62,59,-114,-121,-10,1
,46,2018/03/15 17:53:57.06,-1401,11983,-10976,-48,64,-53,57,-112,-110,-8,-2
,47,2018/03/15 17:53:57.08,-1440,12030,-10959,-58,53,-46,60,-111,-106,2,-7
,48,2018/03/15 17:53:57.10,-1469,12101,-10944,-67,56,-55,64,-123,-119,5,-4
,49,2018/03/15 17:53:57.12,-1408,11962,-11019,-59,66,-63,60,-125,-123,-3,1
,50,2018/03/15 17:53:57.14,-1429,11911,-10974,-46,73,-59,58,-119,-117,-13,0
,51,2018/03/15 17:53:57.16,-1430,11896,-11021,-52,50,-57,57,-102,-114,1,0
,52,2018/03/15 17:53:57.18,-1416,11906,-10944,-66,60,-55,73,-126,-128,3,-9
,53,2018/03/15 17:53:57.20,-1440,12014,-10917,-65,79,-50,99,-144,-149,-7,-24
,54,2018/03/15 17:53:57.22,-1392,12018,-10988,-43,111,-61,91,-154,-152,-34,-15
,55,2018/03/15 17:53:57.24,-1337,12050,-11027,-67,79,-84,60,-146,-144,-6,12
,56,2018/03/15 17:53:57.26,-1359,11998,-11051,-70,63,-70,64,-133,-134,3,3
,57,2018/03/15 17:53:57.28,-1391,11989,-11005,-76,64,-56,71,-140,-127,6,-7
,58,2018/03/15 17:53:57.30,-1452,11912,-11029,-66,63,-61,68,-129,-129,1,-3
,59,2018/03/15 17:53:57.32,-1429,11927,-11032,-60,68,-57,72,-128,-129,-4,-7
,60,2018/03/15 17:53:57.34,-1420,11935,-10946,-47,77,-70,59,-124,-129,-15,5
,61,2018/03/15 17:53:57.36,-1396,11966,-10999,-55,78,-42,89,-133,-131,-11,-23
,62,2018/03/15 17:53:57.38,-1358,11987,-10974,-47,77,-25,87,-124,-112,-15,-31
,63,2018/03/15 17:53:57.40,-1417,11983,-11046,-31,88,-31,87,-119,-118,-28,-28
,64,2018/03/15 17:53:57.42,-1392,11933,-10921,-31,85,-49,65,-116,-114,-27,-8
,65,2018/03/15 17:53:57.44,-1426,11903,-10932,-38,61,-53,56,-99,-109,-11,-1
,66,2018/03/15 17:53:57.46,-1403,11917,-11042,-51,55,-39,67,-106,-106,-2,-14
,67,2018/03/15 17:53:57.48,-1427,12004,-11023,-41,60,-23,74,-101,-97,-9,-25
,68,2018/03/15 17:53:57.50,-1431,12010,-11008,-16,89,-8,95,-105,-103,-36,-43
,69,2018/03/15 17:53:57.52,-1372,12072,-11022,-2,95,-23,84,-97,-107,-46,-30
,70,2018/03/15 17:53:57.54,-1456,12036,-11038,-10,95,-15,93,-105,-108,-42,-39
,71,2018/03/15 17:53:57.56,-1401,11982,-10911,-20,87,-17,91,-107,-108,-33,-37
,72,2018/03/15 17:53:57.58,-1319,12014,-11052,-35,83,-30,84,-118,-114,-24,-27
,73,2018/03/15 17:53:57.60,-1411,12028,-11012,-37,82,-37,79,-119,-116,-22,-21
,74,2018/03/15 17:53:57.62,-1423,11975,-11000,-23,83,-38,66,-106,-104,-30,-14
,75,2018/03/15 17:53:57.64,-1489,11941,-11048,-26,63,-30,49,-89,-79,-18,-9
,76,2018/03/15 17:53:57.66,-1460,11994,-10890,-35,34,-20,51,-69,-71,0,-15
,77,2018/03/15 17:53:57.68,-1475,11993,-10933,-35,38,-27,39,-73,-66,-1,-6
,78,2018/03/15 17:53:57.70,-1484,12070,-10966,-34,42,-53,33,-76,-86,-4,10
,79,2018/03/15 17:53:57.72,-1406,11974,-11013,-46,35,-55,26,-81,-81,5,14
,80,2018/03/15 17:53:57.74,-1386,11990,-10992,-46,37,-43,51,-83,-94,4,-4
,81,2018/03/15 17:53:57.76,-1409,11959,-11053,-44,51,-34,58,-95,-92,-3,-12
,82,2018/03/15 17:53:57.78,-1466,11985,-10924,-48,56,-51,51,-104,-102,-4,0
,83,2018/03/15 17:53:57.80,-1557,11924,-10975,-58,44,-62,44,-102,-106,7,9
,84,2018/03/15 17:53:57.82,-1510,11928,-10954,-42,59,-50,60,-101,-110,-8,-5
,85,2018/03/15 17:53:57.84,-1422,11909,-10882,-48,59,-48,53,-107,-101,-5,-2
,86,2018/03/15 17:53:57.86,-1484,11961,-10935,-57,42,-43,53,-99,-96,7,-5
,87,2018/03/15 17:53:57.88,-1419,11884,-10986,-53,55,-46,64,-108,-110,-1,-9
,88,2018/03/15 17:53:57.90,-1483,12006,-10951,-48,65,-62,46,-113,-108,-8,8
,89,2018/03/15 17:53:57.92,-1472,11954,-11017,-54,51,-58,55,-105,-113,1,1
,90,2018/03/15 17:53:57.94,-1461,12035,-10917,-40,65,-28,68,-105,-96,-12,-20
,91,2018/03/15 17:53:57.96,-1470,12099,-10993,-42,60,-30,70,-102,-100,-9,-20
,92,2018/03/15 17:53:57.98,-1487,12071,-11010,-37,72,-35,66,-109,-101,-17,-15
,93,2018/03/15 17:53:58.00,-1407,12090,-11020,-36,67,-44,66,-103,-110,-15,-11
,94,2018/03/15 17:53:58.02,-1444,12009,-10978,-24,79,-32,76,-103,-108,-27,-22
,95,2018/03/15 17:53:58.04,-1421,11993,-10970,-26,82,-11,94,-108,-105,-28,-41
,96,2018/03/15 17:53:58.06,-1417,11980,-10968,-21,87,-8,96,-108,-104,-33,-44
,97,2018/03/15 17:53:58.08,-1405,11967,-10983,-21,100,-20,86,-121,-106,-39,-33
,98,2018/03/15 17:53:58.10,-1451,12008,-10976,-19,85,-31,76,-104,-107,-33,-22
,99,2018/03/15 17:53:58.12,-1468,12022,-10977,-31,79,-40,76,-110,-116,-24,-18
,100,2018/03/15 17:53:58.14,-1451,11969,-10949,-49,71,-41,77,-120,-118,-11,-18
,101,2018/03/15 17:53:58.16,-1409,12003,-10955,-52,64,-41,62,-116,-103,-6,-10
,102,2018/03/15 17:53:58.18,-1493,12008,-10976,-46,67,-40,73,-113,-113,-10,-16
,103,2018/03/15 17:53:58.20,-1473,12014,-10927,-24,83,-41,67,-107,-108,-29,-13
,104,2018/03/15 17:53:58.22,-1496,12020,-10925,-36,68,-35,71,-104,-106,-16,-18
,105,2018/03/15 17:53:58.24,-1522,12008,-10913,-29,78,-18,88,-107,-106,-24,-35
,106,2018/03/15 17:53:58.26,-1490,11972,-10923,-34,83,-30,85,-117,-115,-24,-27
,107,2018/03/15 17:53:58.28,-1447,11993,-10912,-30,80,-31,81,-110,-112,-25,-25
,108,2018/03/15 17:53:58.30,-1536,11964,-11034,-18,91,-26,86,-109,-112,-36,-30
,109,2018/03/15 17:53:58.32,-1449,12029,-10973,-17,89,-17,84,-106,-101,-36,-33
,110,2018/03/15 17:53:58.34,-1487,12023,-10960,-34,74,-31,80,-108,-111,-20,-24
,111,2018/03/15 17:53:58.36,-1546,12016,-11001,-40,79,-22,93,-119,-115,-19,-35
,112,2018/03/15 17:53:58.38,-1501,11880,-10957,-16,106,-22,105,-122,-127,-45,-41
,113,2018/03/15 17:53:58.40,-1515,11909,-10996,-10,111,-26,95,-121,-121,-50,-34
,114,2018/03/15 17:53:58.42,-1535,11897,-10879,-32,86,-34,80,-118,-114,-27,-23
,115,2018/03/15 17:53:58.44,-1456,11984,-10885,-50,68,-36,70,-118,-106,-9,-17
,116,2018/03/15 17:53:58.46,-1546,12037,-10983,-44,58,-59,41,-102,-100,-7,9
,117,2018/03/15 17:53:58.48,-1364,12091,-10983,-76,23,-110,-8,-99,-102,26,59
,118,2018/03/15 17:53:58.50,-1392,12140,-10992,-121,-28,-159,-58,-93,-101,74,108
,119,2018/03/15 17:53:58.52,-1415,12106,-11042,-167,-68,-165,-67,-99,-98,117,116
,120,2018/03/15 17:53:58.54,-1473,12051,-10990,-167,-64,-152,-49,-103,-103,115,100
,121,2018/03/15 17:53:58.56,-1529,11985,-10942,-156,-50,-143,-36,-106,-107,103,89
,122,2018/03/15 17:53:58.58,-1486,11964,-10917,-120,-10,-102,16,-110,-118,65,43
,123,2018/03/15 17:53:58.60,-1550,11999,-10958,-58,53,-34,79,-111,-113,2,-22
,124,2018/03/15 17:53:58.62,-1483,11960,-10934,-16,97,-6,110,-113,-116,-40,-52
,125,2018/03/15 17:53:58.64,-1549,11914,-11012,-26,93,-14,99,-119,-113,-33,-42
,126,2018/03/15 17:53:58.66,-1561,11944,-10926,-24,96,-24,99,-120,-123,-36,-37
,127,2018/03/15 17:53:58.68,-1629,11938,-10932,-8,111,-16,106,-119,-122,-51,-45
,128,2018/03/15 17:53:58.70,-1585,12020,-10865,-1,118,-10,115,-119,-125,-58,-52
,129,2018/03/15 17:53:58.72,-1467,12028,-10919,-11,110,5,127,-121,-122,-49,-66
,130,2018/03/15 17:53:58.74,-1508,12070,-10992,-1,122,14,129,-123,-115,-60,-71
,131,2018/03/15 17:53:58.76,-1498,12032,-11024,15,129,7,122,-114,-115,-72,-64
,132,2018/03/15 17:53:58.78,-1523,12027,-10989,5,117,-21,95,-112,-116,-61,-37
,133,2018/03/15 17:53:58.80,-1493,12060,-10965,-19,93,-17,93,-112,-110,-37,-38
,134,2018/03/15 17:53:58.82,-1474,11976,-11011,-19,91,-11,103,-110,-114,-36,-46
,135,2018/03/15 17:53:58.84,-1482,12012,-10954,-26,97,-23,91,-123,-114,-35,-34
,136,2018/03/15 17:53:58.86,-1543,11996,-10950,-29,77,-38,65,-106,-103,-24,-13
,137,2018/03/15 17:53:58.88,-1468,12013,-10987,-33,70,-42,67,-103,-109,-18,-12
,138,2018/03/15 17:53:58.90,-1424,12015,-10905,-42,69,-35,72,-111,-107,-13,-18
,139,2018/03/15 17:53:58.92,-1559,11994,-10934,-42,66,-22,80,-108,-102,-12,-29
,140,2018/03/15 17:53:58.94,-1479,11994,-10966,-28,76,-14,87,-104,-101,-24,-36
,141,2018/03/15 17:53:58.96,-1523,12015,-10913,-13,95,-16,102,-108,-118,-41,-43
,142,2018/03/15 17:53:58.98,-1573,12017,-10967,-8,104,-16,92,-112,-108,-48,-38
,143,2018/03/15 17:53:59.00,-1472,12050,-10924,-10,92,-7,98,-102,-105,-41,-45
,144,2018/03/15 17:53:59.02,-1429,12037,-10938,-19,94,-11,95,-113,-106,-37,-42
,145,2018/03/15 17:53:59.04,-1482,12028,-10953,-25,94,-27,96,-119,-123,-34,-34
,146,2018/03/15 17:53:59.06,-1528,12016,-10952,-25,98,-36,82,-123,-118,-36,-23
,147,2018/03/15 17:53:59.08,-1483,12001,-10969,-23,86,-34,83,-109,-117,-31,-24
,148,2018/03/15 17:53:59.10,-1443,12054,-10911,-28,89,-26,94,-117,-120,-30,-34
,149,2018/03/15 17:53:59.12,-1479,12078,-11013,-42,83,-42,80,-125,-122,-20,-19
,150,2018/03/15 17:53:59.14,-1525,11951,-11021,-51,74,-47,71,-125,-118,-11,-12
,151,2018/03/15 17:53:59.16,-1497,11920,-10994,-36,71,-46,63,-107,-109,-17,-8
,152,2018/03/15 17:53:59.18,-1599,11936,-10863,-35,70,-37,77,-105,-114,-17,-20
,153,2018/03/15 17:53:59.20,-1549,11969,-10894,-36,81,-28,83,-117,-111,-22,-27
,154,2018/03/15 17:53:59.22,-1535,12005,-10907,-44,80,-33,85,-124,-118,-18,-26
,155,2018/03/15 17:53:59.24,-1528,12033,-10970,-38,84,-38,81,-122,-119,-23,-21
,156,2018/03/15 17:53:59.26,-1535,12060,-11004,-40,84,-53,74,-124,-127,-22,-10
,157,2018/03/15 17:53:59.28,-1583,12047,-11047,-40,73,-43,70,-113,-113,-16,-13
,158,2018/03/15 17:53:59.30,-1474,12068,-10893,-38,75,-30,96,-113,-126,-18,-33
,159,2018/03/15 17:53:59.32,-1578,11980,-10904,-43,86,-40,86,-129,-126,-21,-23
,160,2018/03/15 17:53:59.34,-1580,11995,-10907,-45,75,-61,62,-120,-123,-15,0
,161,2018/03/15 17:53:59.36,-1588,11992,-10912,-50,67,-60,59,-117,-119,-8,0
,162,2018/03/15 17:53:59.38,-1523,12042,-10898,-50,63,-53,64,-113,-117,-6,-5
,163,2018/03/15 17:53:59.40,-1623,12016,-10978,-56,73,-44,88,-129,-132,-8,-22
,164,2018/03/15 17:53:59.42,-1553,12015,-10884,-48,85,-36,91,-133,-127,-18,-27
,165,2018/03/15 17:53:59.44,-1583,11979,-10906,-38,89,-43,81,-127,-124,-25,-19
,166,2018/03/15 17:53:59.46,-1608,12066,-10924,-33,85,-42,81,-118,-123,-26,-19
,167,2018/03/15 17:53:59.48,-1508,12169,-10965,-36,81,-37,80,-117,-117,-22,-21
,168,2018/03/15 17:53:59.50,-1474,12115,-10947,-45,77,-37,80,-122,-117,-16,-21
,169,2018/03/15 17:53:59.52,-1461,12074,-10991,-47,75,-42,75,-122,-117,-14,-16
,170,2018/03/15 17:53:59.54,-1456,12036,-10924,-46,77,-60,65,-123,-125,-15,-2
,171,2018/03/15 17:53:59.56,-1526,11961,-11005,-52,65,-61,57,-117,-118,-6,2
,172,2018/03/15 17:53:59.58,-1527,11937,-10956,-55,57,-56,58,-112,-114,-1,-1
,173,2018/03/15 17:53:59.60,-1479,11953,-10956,-71,49,-67,52,-120,-119,11,7
,174,2018/03/15 17:53:59.62,-1505,12019,-10954,-75,46,-67,48,-121,-115,14,9
,175,2018/03/15 17:53:59.64,-1438,12029,-10961,-56,58,-63,52,-114,-115,-1,5
,176,2018/03/15 17:53:59.66,-1523,12038,-10958,-49,58,-57,50,-107,-107,-4,3
,177,2018/03/15 17:53:59.68,-1505,11915,-10950,-60,46,-58,50,-106,-108,7,4
,178,2018/03/15 17:53:59.70,-1481,11947,-10920,-66,43,-56,46,-109,-102,11,5
,179,2018/03/15 17:53:59.72,-1565,11967,-10923,-65,44,-56,51,-109,-107,10,2
,180,2018/03/15 17:53:59.74,-1599,12030,-11059,-44,63,-48,70,-107,-118,-9,-11
,181,2018/03/15 17:53:59.76,-1558,12041,-10966,-44,79,-54,82,-123,-136,-17,-14
,182,2018/03/15 17:53:59.78,-1520,12042,-10961,-65,77,-65,80,-142,-145,-6,-7
,183,2018/03/15 17:53:59.80,-1495,12039,-10932,-70,81,-54,91,-151,-145,-5,-18
,184,2018/03/15 17:53:59.82,-1539,12091,-10967,-60,85,-66,79,-145,-145,-12,-6
,185,2018/03/15 17:53:59.84,-1468,12094,-10881,-56,88,-68,83,-144,-151,-16,-7
,186,2018/03/15 17:53:59.86,-1602,12035,-10994,-58,89,-65,85,-147,-150,-15,-10
,187,2018/03/15 17:53:59.88,-1575,11884,-11016,-71,77,-66,77,-148,-143,-3,-5
,188,2018/03/15 17:53:59.90,-1660,11888,-10967,-73,71,-60,78,-144,-138,1,-9
,189,2018/03/15 17:53:59.92,-1608,11966,-10840,-64,80,-70,72,-144,-142,-8,-1
,190,2018/03/15 17:53:59.94,-1582,11972,-10854,-65,72,-74,66,-137,-140,-3,4
,191,2018/03/15 17:53:59.96,-1573,12032,-10946,-66,72,-70,70,-138,-140,-3,0
,192,2018/03/15 17:53:59.98,-1512,12049,-10975,-77,64,-68,67,-141,-135,6,0
,193,2018/03/15 17:54:00.00,-1518,12026,-11051,-79,60,-72,60,-139,-132,9,6
,194,2018/03/15 17:54:00.02,-1452,12006,-11015,-69,64,-69,64,-133,-133,2,2
,195,2018/03/15 17:54:00.04,-1476,12017,-10904,-56,71,-59,70,-127,-129,-7,-5
,196,2018/03/15 17:54:00.06,-1534,12009,-10956,-45,79,-41,83,-124,-124,-17,-21
,197,2018/03/15 17:54:00.08,-1581,11980,-10959,-52,79,-50,77,-131,-127,-13,-13
,198,2018/03/15 17:54:00.10,-1592,12018,-10925,-58,71,-66,59,-129,-125,-6,3
,199,2018/03/15 17:54:00.12,-1582,12074,-10940,-68,60,-81,56,-128,-137,4,12
,200,2018/03/15 17:54:00.14,-1556,11943,-11020,-62,67,-67,63,-129,-130,-2,2
,201,2018/03/15 17:54:00.16,-1696,11952,-10904,-54,68,-59,63,-122,-122,-7,-2
,202,2018/03/15 17:54:00.18,-1628,11986,-10904,-69,60,-63,62,-129,-125,4,0
,203,2018/03/15 17:54:00.20,-1575,11985,-10930,-61,72,-51,79,-133,-130,-5,-14
,204,2018/03/15 17:54:00.22,-1503,12079,-10993,-51,68,-59,57,-119,-116,-8,1
,205,2018/03/15 17:54:00.24,-1624,12089,-10996,-54,58,-66,53,-112,-119,-2,6
,206,2018/03/15 17:54:00.26,-1533,12077,-10988,-62,59,-55,68,-121,-123,1,-6
,207,2018/03/15 17:54:00.28,-1560,12021,-11027,-62,66,-51,73,-128,-124,-2,-11
,208,2018/03/15 17:54:00.30,-1538,11941,-11017,-54,69,-54,64,-123,-118,-7,-5
,209,2018/03/15 17:54:00.32,-1536,11879,-10969,-55,66,-61,65,-121,-126,-5,-2
,210,2018/03/15 17:54:00.34,-1548,11931,-10926,-46,73,-49,72,-119,-121,-13,-11
,211,2018/03/15 17:54:00.36,-1536,12018,-10949,-52,70,-46,74,-122,-120,-9,-14
,212,2018/03/15 17:54:00.38,-1487,11926,-10994,-54,68,-44,70,-122,-114,-7,-13
,213,2018/03/15 17:54:00.40,-1513,12022,-10933,-47,69,-47,68,-116,-115,-11,-10
,214,2018/03/15 17:54:00.42,-1543,12002,-10906,-41,67,-54,59,-108,-113,-13,-2
,215,2018/03/15 17:54:00.44,-1489,12007,-10923,-46,64,-52,66,-110,-118,-9,-7
,216,2018/03/15 17:54:00.46,-1554,11933,-10933,-54,66,-44,66,-120,-110,-6,-11
,217,2018/03/15 17:54:00.48,-1590,11997,-10888,-48,58,-38,59,-106,-97,-5,-10
,218,2018/03/15 17:54:00.50,-1579,11980,-10917,-41,58,-42,58,-99,-100,-8,-8
,219,2018/03/15 17:54:00.52,-1560,12045,-10932,-42,59,-55,52,-101,-107,-8,1
,220,2018/03/15 17:54:00.54,-1599,12031,-10951,-63,44,-59,46,-107,-105,9,6
,221,2018/03/15 17:54:00.56,-1585,12070,-10898,-61,45,-40,64,-106,-104,8,-12
,222,2018/03/15 17:54:00.58,-1546,12096,-10973,-42,65,-30,68,-107,-98,-11,-19
,223,2018/03/15 17:54:00.60,-1660,12032,-10986,-33,61,-42,58,-94,-100,-14,-8
,224,2018/03/15 17:54:00.62,-1606,11968,-11034,-38,62,-38,69,-100,-107,-12,-15
,225,2018/03/15 17:54:00.64,-1618,11972,-10873,-24,83,-19,90,-107,-109,-29,-35
,226,2018/03/15 17:54:00.66,-1609,12019,-10880,-26,79,-20,75,-105,-95,-26,-27
,227,2018/03/15 17:54:00.68,-1532,12056,-10958,-31,71,-28,76,-102,-104,-20,-24
,228,2018/03/15 17:54:00.70,-1531,12105,-10945,-25,77,-28,72,-102,-100,-26,-22
,229,2018/03/15 17:54:00.72,-1522,12064,-11001,-19,73,-30,68,-92,-98,-27,-19
,230,2018/03/15 17:54:00.74,-1589,12081,-10931,-26,72,-28,73,-98,-101,-23,-22
,231,2018/03/15 17:54:00.76,-1618,11956,-10935,-39,64,-30,64,-103,-94,-12,-17
,232,2018/03/15 17:54:00.78,-1568,12008,-10849,-41,58,-41,58,-99,-99,-8,-8
,233,2018/03/15 17:54:00.80,-1598,11943,-10855,-34,65,-38,60,-99,-98,-15,-11
,234,2018/03/15 17:54:00.82,-1577,12031,-10926,-24,65,-28,64,-89,-92,-20,-18
,235,2018/03/15 17:54:00.84,-1519,11999,-10828,-30,61,-34,56,-91,-90,-15,-11
,236,2018/03/15 17:54:00.86,-1580,11998,-11013,-53,42,-50,42,-95,-92,5,4
,237,2018/03/15 17:54:00.88,-1644,12016,-10903,-58,40,-57,40,-98,-97,9,8
,238,2018/03/15 17:54:00.90,-1599,11984,-10936,-58,38,-74,27,-96,-101,10,23
,239,2018/03/15 17:54:00.92,-1573,11980,-10905,-68,30,-94,9,-98,-103,19,42
,240,2018/03/15 17:54:00.94,-1534,12050,-10902,-113,-16,-135,-40,-97,-95,64,87
,241,2018/03/15 17:54:00.96,-1554,12040,-10971,-139,-36,-131,-29,-103,-102,87,80
,242,2018/03/15 17:54:00.98,-1507,12009,-10951,-137,-29,-139,-37,-108,-102,83,88
,243,2018/03/15 17:54:01.00,-1575,12012,-10958,-123,-21,-118,-10,-102,-108,72,64
,244,2018/03/15 17:54:01.02,-1612,11970,-10957,-88,20,-72,37,-108,-109,34,17
,245,2018/03/15 17:54:01.04,-1596,12001,-10917,-61,49,-39,62,-110,-101,6,-11
,246,2018/03/15 17:54:01.06,-1566,12043,-10913,-40,63,-21,70,-103,-91,-11,-24
,247,2018/03/15 17:54:01.08,-1539,12065,-10917,-10,82,-7,92,-92,-99,-36,-42
,248,2018/03/15 17:54:01.10,-1649,12035,-10874,2,102,-9,92,-100,-101,-52,-41
,249,2018/03/15 17:54:01.12,-1586,12011,-10898,2,97,7,103,-95,-96,-49,-55
,250,2018/03/15 17:54:01.14,-1667,11960,-10866,6,103,16,107,-97,-91,-54,-61
,251,2018/03/15 17:54:01.16,-1600,11972,-10905,3,102,4,105,-99,-101,-52,-54
,252,2018/03/15 17:54:01.18,-1598,11989,-10884,3,106,0,101,-103,-101,-54,-50
,253,2018/03/15 17:54:01.20,-1680,12038,-10916,6,104,-2,100,-98,-102,-55,-49
,254,2018/03/15 17:54:01.22,-1603,12077,-10935,3,105,4,109,-102,-105,-54,-56
,255,2018/03/15 17:54:01.24,-1602,12079,-10895,-4,103,3,110,-107,-107,-49,-56
,256,2018/03/15 17:54:01.26,-1662,12017,-10945,-2,115,0,111,-117,-111,-56,-55
,257,2018/03/15 17:54:01.28,-1598,12033,-10963,-4,105,-17,97,-109,-114,-50,-40
,258,2018/03/15 17:54:01.30,-1610,12063,-10931,-4,106,-3,109,-110,-112,-51,-53
,259,2018/03/15 17:54:01.32,-1629,11926,-11036,4,108,10,105,-104,-95,-56,-57
,260,2018/03/15 17:54:01.34,-1684,11981,-10884,-18,80,-16,74,-98,-90,-31,-29
,261,2018/03/15 17:54:01.36,-1672,12027,-10899,-37,56,-26,68,-93,-94,-9,-21
,262,2018/03/15 17:54:01.38,-1600,12013,-10907,-27,66,-36,66,-93,-102,-19,-15
,263,2018/03/15 17:54:01.40,-1609,12081,-10964,-19,76,-19,78,-95,-97,-28,-29
,264,2018/03/15 17:54:01.42,-1625,12156,-10966,-21,71,-19,74,-92,-93,-25,-27
,265,2018/03/15 17:54:01.44,-1653,12068,-10990,-34,66,-29,67,-100,-96,-16,-19
,266,2018/03/15 17:54:01.46,-1652,12054,-10912,-32,66,-22,73,-98,-95,-17,-25
,267,2018/03/15 17:54:01.48,-1649,12023,-10937,-10,88,-21,86,-98,-107,-39,-32
,268,2018/03/15 17:54:01.50,-1594,11973,-10857,-15,93,-22,91,-108,-113,-39,-34
,269,2018/03/15 17:54:01.52,-1672,11947,-10875,-23,87,-16,91,-110,-107,-32,-37
,270,2018/03/15 17:54:01.54,-1610,12082,-10891,-28,84,-20,84,-112,-104,-28,-32
,271,2018/03/15 17:54:01.56,-1675,12008,-10949,-24,80,-29,76,-104,-105,-28,-23
,272,2018/03/15 17:54:01.58,-1680,12035,-10895,-23,81,-29,78,-104,-107,-29,-24
,273,2018/03/15 17:54:01.60,-1669,11924,-10925,-17,85,-18,85,-102,-103,-34,-33
,274,2018/03/15 17:54:01.62,-1635,11978,-10944,-21,80,-18,79,-101,-97,-29,-30
,275,2018/03/15 17:54:01.64,-1669,12033,-10869,-27,72,-16,79,-99,-95,-22,-31
,276,2018/03/15 17:54:01.66,-1606,12067,-10953,-17,86,-27,82,-103,-109,-34,-27
,277,2018/03/15 17:54:01.68,-1656,12100,-10896,-26,80,-38,66,-106,-104,-27,-14
,278,2018/03/15 17:54:01.70,-1568,12036,-10911,-29,67,-24,68,-96,-92,-19,-22
,279,2018/03/15 17:54:01.72,-1660,11966,-10895,-24,69,-13,76,-93,-89,-22,-31
,280,2018/03/15 17:54:01.74,-1669,12000,-10909,-12,80,-17,69,-92,-86,-34,-26
,281,2018/03/15 17:54:01.76,-1639,12037,-10928,-17,68,-30,56,-85,-86,-25,-13
,282,2018/03/15 17:54:01.78,-1671,12049,-10936,-6,76,-14,74,-82,-88,-35,-30
,283,2018/03/15 17:54:01.80,-1664,12006,-10834,-11,84,-23,81,-95,-104,-36,-29
,284,2018/03/15 17:54:01.82,-1621,12039,-10920,-40,74,-38,74,-114,-112,-17,-18
,285,2018/03/15 17:54:01.84,-1634,12039,-10919,-50,72,-44,71,-122,-115,-11,-13
,286,2018/03/15 17:54:01.86,-1643,12015,-10842,-44,64,-52,63,-108,-115,-10,-5
,287,2018/03/15 17:54:01.88,-1625,12013,-10889,-42,71,-48,73,-113,-121,-14,-12
,288,2018/03/15 17:54:01.90,-1650,11992,-10891,-44,81,-40,83,-125,-123,-18,-21
,289,2018/03/15 17:54:01.92,-1635,12031,-10907,-49,69,-38,67,-118,-105,-10,-14
,290,2018/03/15 17:54:01.94,-1560,12025,-10903,-38,66,-38,64,-104,-102,-14,-13
,291,2018/03/15 17:54:01.96,-1552,12004,-10992,-41,69,-49,74,-110,-123,-14,-12
,292,2018/03/15 17:54:01.98,-1626,12073,-10944,-34,83,-33,80,-117,-113,-24,-23
,293,2018/03/15 17:54:02.00,-1593,12047,-10983,-30,79,-32,75,-109,-107,-24,-21
,294,2018/03/15 17:54:02.02,-1681,11882,-10982,-44,64,-38,64,-108,-102,-10,-13
,295,2018/03/15 17:54:02.04,-1721,11938,-10909,-40,67,-37,71,-107,-108,-13,-17
,296,2018/03/15 17:54:02.06,-1606,12004,-10869,-28,77,-35,74,-105,-109,-24,-19
,297,2018/03/15 17:54:02.08,-1614,12043,-10881,-31,75,-38,76,-106,-114,-22,-19
,298,2018/03/15 17:54:02.10,-1633,12077,-10940,-37,79,-30,86,-116,-116,-21,-28
,299,2018/03/15 17:54:02.12,-1567,12088,-10957,-40,75,-34,72,-115,-106,-17,-19
,300,2018/03/15 17:54:02.14,-1642,12090,-10957,-40,71,-34,82,-111,-116,-15,-24
,301,2018/03/15 17:54:02.16,-1547,12023,-10952,-34,77,-40,75,-111,-115,-21,-17
,302,2018/03/15 17:54:02.18,-1553,11969,-10923,-37,72,-28,89,-109,-117,-17,-30
,303,2018/03/15 17:54:02.20,-1643,12033,-10911,-38,86,-35,87,-124,-122,-24,-26
,304,2018/03/15 17:54:02.22,-1642,11993,-10929,-38,76,-32,76,-114,-108,-19,-22
,305,2018/03/15 17:54:02.24,-1617,12022,-10887,-36,74,-40,72,-110,-112,-19,-16
,306,2018/03/15 17:54:02.26,-1690,11980,-10904,-32,82,-42,81,-114,-123,-25,-19
,307,2018/03/15 17:54:02.28,-1670,11980,-10972,-39,78,-38,77,-117,-115,-19,-19
,308,2018/03/15 17:54:02.30,-1643,11970,-10829,-38,77,-28,82,-115,-110,-19,-27
,309,2018/03/15 17:54:02.32,-1608,12042,-10888,-35,78,-26,82,-113,-108,-21,-28
,310,2018/03/15 17:54:02.34,-1620,12144,-10904,-19,89,-20,92,-108,-112,-35,-36
,311,2018/03/15 17:54:02.36,-1554,12155,-10926,-9,103,-20,100,-112,-120,-47,-40
,312,2018/03/15 17:54:02.38,-1552,12155,-10929,-20,93,-22,91,-113,-113,-36,-34
,313,2018/03/15 17:54:02.40,-1571,12045,-10952,-29,89,-24,92,-118,-116,-30,-34
,314,2018/03/15 17:54:02.42,-1635,11981,-10936,-33,85,-29,83,-118,-112,-26,-27
,315,2018/03/15 17:54:02.44,-1613,11928,-10917,-28,83,-35,76,-111,-111,-27,-20
,316,2018/03/15 17:54:02.46,-1619,11968,-10939,-26,78,-30,78,-104,-108,-26,-24
,317,2018/03/15 17:54:02.48,-1677,12009,-10924,-25,84,-26,82,-109,-108,-29,-28
,318,2018/03/15 17:54:02.50,-1636,12020,-10888,-40,69,-36,69,-109,-105,-14,-16
,319,2018/03/15 17:54:02.52,-1610,12020,-10921,-43,64,-37,65,-107,-102,-10,-14
,320,2018/03/15 17:54:02.54,-1577,12064,-10931,-26,75,-26,75,-101,-101,-24,-24
,321,2018/03/15 17:54:02.56,-1627,12027,-10939,-6,86,-21,76,-92,-97,-40,-27
,322,2018/03/15 17:54:02.58,-1581,12010,-10864,-21,73,-26,67,-94,-93,-26,-20
,323,2018/03/15 17:54:02.60,-1622,12004,-10834,-15,81,-4,93,-96,-97,-33,-44
,324,2018/03/15 17:54:02.62,-1651,11989,-10958,-18,86,-16,86,-104,-102,-34,-35
,325,2018/03/15 17:54:02.64,-1634,12017,-10928,-15,88,-27,79,-103,-106,-36,-26
,326,2018/03/15 17:54:02.66,-1549,12035,-10857,-22,82,-30,80,-104,-110,-30,-25
,327,2018/03/15 17:54:02.68,-1607,12107,-10934,-28,77,-24,79,-105,-103,-24,-27
,328,2018/03/15 17:54:02.70,-1629,12000,-10954,-41,72,-46,65,-113,-111,-15,-9
,329,2018/03/15 17:54:02.72,-1647,11999,-11035,-54,57,-58,54,-111,-112,-1,2
,330,2018/03/15 17:54:02.74,-1713,12049,-10846,-50,60,-54,60,-110,-114,-5,-3
,331,2018/03/15 17:54:02.76,-1644,11989,-10856,-43,69,-41,73,-112,-114,-13,-16
,332,2018/03/15 17:54:02.78,-1621,12059,-10909,-39,74,-30,74,-113,-104,-17,-22
,333,2018/03/15 17:54:02.80,-1561,12123,-10908,-41,62,-38,62,-103,-100,-10,-12
,334,2018/03/15 17:54:02.82,-1634,12118,-10961,-45,62,-52,60,-107,-112,-8,-4
,335,2018/03/15 17:54:02.84,-1575,12019,-10951,-44,64,-49,61,-108,-110,-10,-6
,336,2018/03/15 17:54:02.86,-1642,12046,-10927,-42,68,-42,74,-110,-116,-13,-16
,337,2018/03/15 17:54:02.88,-1644,11942,-10860,-44,77,-38,82,-121,-120,-16,-22
,338,2018/03/15 17:54:02.90,-1674,11912,-10903,-44,80,-35,79,-124,-114,-18,-22
,339,2018/03/15 17:54:02.92,-1684,12024,-10900,-37,79,-49,70,-116,-119,-21,-10
,340,2018/03/15 17:54:02.94,-1646,12009,-10867,-49,64,-59,56,-113,-115,-7,1
,341,2018/03/15 17:54:02.96,-1664,12001,-10945,-52,60,-40,66,-112,-106,-4,-13
,342,2018/03/15 17:54:02.98,-1702,12015,-10842,-52,55,-42,64,-107,-106,-1,-11
,343,2018/03/15 17:54:03.00,-1753,11967,-10815,-58,50,-44,66,-108,-110,4,-11
,344,2018/03/15 17:54:03.02,-1700,12047,-10816,-40,71,-56,62,-111,-118,-15,-3
,345,2018/03/15 17:54:03.04,-1706,12104,-10908,-48,60,-63,42,-108,-105,-6,10
,346,2018/03/15 17:54:03.06,-1630,12079,-10896,-75,30,-83,20,-105,-103,22,31
,347,2018/03/15 17:54:03.08,-1632,12093,-10977,-109,-3,-121,-21,-106,-100,56,71
,348,2018/03/15 17:54:03.10,-1608,12116,-10939,-136,-35,-131,-30,-101,-101,85,80
,349,2018/03/15 17:54:03.12,-1671,12069,-10920,-114,-8,-106,13,-106,-119,61,46
,350,2018/03/15 17:54:03.14,-1684,12040,-10838,-77,44,-62,64,-121,-126,16,-1
,351,2018/03/15 17:54:03.16,-1630,12032,-10925,-48,79,-32,93,-127,-125,-15,-30
,352,2018/03/15 17:54:03.18,-1619,12082,-10921,-35,91,-23,91,-126,-114,-28,-34
,353,2018/03/15 17:54:03.20,-1632,12100,-10904,-21,92,-11,99,-113,-110,-35,-44
,354,2018/03/15 17:54:03.22,-1624,12041,-10906,-2,109,-9,106,-111,-115,-53,-48
,355,2018/03/15 17:54:03.24,-1659,12023,-10844,-1,108,-8,102,-109,-110,-53,-47
,356,2018/03/15 17:54:03.26,-1616,12009,-10828,-15,96,-15,96,-111,-111,-40,-40
,357,2018/03/15 17:54:03.28,-1678,11977,-10898,-24,92,-12,104,-116,-116,-34,-46
,358,2018/03/15 17:54:03.30,-1675,12032,-10842,-17,106,-22,102,-123,-124,-44,-40
,359,2018/03/15 17:54:03.32,-1713,12061,-10837,-14,103,-26,93,-117,-119,-44,-33
,360,2018/03/15 17:54:03.34,-1661,12075,-10957,-24,95,-28,100,-119,-128,-35,-36
,361,2018/03/15 17:54:03.36,-1636,12179,-10867,-36,94,-33,90,-130,-123,-29,-28
,362,2018/03/15 17:54:03.38,-1685,12104,-10977,-34,89,-38,82,-123,-120,-27,-22
,363,2018/03/15 17:54:03.40,-1725,11994,-10994,-40,83,-53,70,-123,-123,-21,-8
,364,2018/03/15 17:54:03.42,-1748,11987,-10889,-39,87,-48,81,-126,-129,-24,-16
,365,2018/03/15 17:54:03.44,-1677,12005,-10840,-40,86,-45,83,-126,-128,-23,-19
,366,2018/03/15 17:54:03.46,-1676,12086,-10850,-50,87,-44,91,-137,-135,-18,-23
,367,2018/03/15 17:54:03.48,-1652,12121,-10912,-48,89,-36,93,-137,-129,-20,-28
,368,2018/03/15 17:54:03.50,-1573,12116,-10948,-29,91,-30,92,-120,-122,-31,-31
,369,2018/03/15 17:54:03.52,-1580,12076,-10918,-22,101,-34,96,-123,-130,-39,-31
,370,2018/03/15 17:54:03.54,-1652,12024,-10865,-28,97,-21,104,-125,-125,-34,-41
,371,2018/03/15 17:54:03.56,-1717,11959,-10908,-26,103,-19,110,-129,-129,-38,-45
,372,2018/03/15 17:54:03.58,-1697,11970,-10892,-31,105,-31,102,-136,-133,-37,-35
,373,2018/03/15 17:54:03.60,-1688,12012,-10901,-28,105,-31,104,-133,-135,-38,-36
,374,2018/03/15 17:54:03.62,-1759,12077,-10839,-19,109,-28,102,-128,-130,-45,-37
,375,2018/03/15 17:54:03.64,-1712,12043,-10920,-28,102,-28,107,-130,-135,-37,-39
,376,2018/03/15 17:54:03.66,-1690,12066,-10867,-36,106,-30,105,-142,-135,-35,-37
,377,2018/03/15 17:54:03.68,-1725,12077,-10853,-39,90,-38,84,-129,-122,-25,-23
,378,2018/03/15 17:54:03.70,-1716,12093,-10818,-34,87,-43,80,-121,-123,-26,-18
,379,2018/03/15 17:54:03.72,-1677,12111,-10886,-39,80,-48,80,-119,-128,-20,-16
,380,2018/03/15 17:54:03.74,-1663,12164,-10910,-50,78,-50,78,-128,-128,-14,-14
,381,2018/03/15 17:54:03.76,-1696,12165,-10916,-60,73,-49,79,-133,-128,-6,-15
,382,2018/03/15 17:54:03.78,-1686,12103,-10908,-48,78,-36,86,-126,-122,-15,-25
,383,2018/03/15 17:54:03.80,-1721,12067,-10874,-42,79,-52,75,-121,-127,-18,-11
,384,2018/03/15 17:54:03.82,-1650,12007,-10942,-54,64,-47,72,-118,-119,-5,-12
,385,2018/03/15 17:54:03.84,-1656,11930,-10911,-44,70,-44,68,-114,-112,-13,-12
,386,2018/03/15 17:54:03.86,-1583,11969,-10936,-51,62,-48,60,-113,-108,-5,-6
,387,2018/03/15 17:54:03.88,-1592,11962,-10951,-52,58,-53,63,-110,-116,-3,-5
,388,2018/03/15 17:54:03.90,-1624,11992,-10903,-49,69,-55,66,-118,-121,-10,-5
,389,2018/03/15 17:54:03.92,-1571,11986,-10959,-46,68,-50,63,-114,-113,-11,-6
,390,2018/03/15 17:54:03.94,-1542,11982,-10941,-51,64,-42,75,-115,-117,-6,-16
,391,2018/03/15 17:54:03.96,-1609,11988,-10914,-50,75,-43,80,-125,-123,-12,-18
,392,2018/03/15 17:54:03.98,-1667,12017,-10885,-46,78,-50,66,-124,-116,-16,-8
,393,2018/03/15 17:54:04.00,-1624,12113,-10943,-44,60,-51,54,-104,-105,-8,-1
,394,2018/03/15 17:54:04.02,-1654,12113,-10906,-47,56,-52,57,-103,-109,-4,-2
,395,2018/03/15 17:54:04.04,-1571,12095,-10940,-60,51,-52,56,-111,-108,4,-2
,396,2018/03/15 17:54:04.06,-1550,12118,-10978,-63,49,-62,45,-112,-107,7,8
,397,2018/03/15 17:54:04.08,-1545,12019,-11014,-64,43,-73,36,-107,-109,10,18
,398,2018/03/15 17:54:04.10,-1578,11946,-11082,-64,42,-75,41,-106,-116,11,17
,399,2018/03/15 17:54:04.12,-1570,11943,-10937,-72,47,-69,49,-119,-118,12,10
,400,2018/03/15 17:54:04.14,-1528,11965,-10924,-72,47,-57,57,-119,-114,12,0
,401,2018/03/15 17:54:04.16,-1414,11996,-10964,-57,61,-54,64,-118,-118,-2,-5
,402,2018/03/15 17:54:04.18,-1355,12098,-11084,-60,62,-74,48,-122,-122,-1,13
,403,2018/03/15 17:54:04.20,-1279,12097,-11197,-57,60,-72,46,-117,-118,-1,13
,404,2018/03/15 17:54:04.22,-1246,12261,-11300,-67,50,-76,36,-117,-112,8,20
,405,2018/03/15 17:54:04.24,-1166,12430,-11550,-94,24,-92,14,-118,-106,35,39
,406,2018/03/15 17:54:04.26,-1105,12710,-11361,-118,-20,-133,-43,-98,-90,69,88
,407,2018/03/15 17:54:04.28,-1066,12589,-11286,-148,-56,-173,-79,-92,-94,102,126
,408,2018/03/15 17:54:04.30,-993,12448,-11159,-157,-66,-151,-52,-91,-99,111,101
,409,2018/03/15 17:54:04.32,-932,12344,-11204,-144,-38,-132,-4,-106,-128,91,68
,410,2018/03/15 17:54:04.34,-1017,12275,-11327,-129,37,-111,79,-166,-190,46,16
,411,2018/03/15 17:54:04.36,-1123,12191,-11298,-110,96,-96,127,-206,-223,7,-15
,412,2018/03/15 17:54:04.38,-1179,12318,-11269,-88,170,-134,152,-258,-286,-41,-9
,413,2018/03/15 17:54:04.40,-1278,12240,-11227,-172,102,-192,61,-274,-253,35,65
,414,2018/03/15 17:54:04.42,-1364,12256,-11171,-192,37,-173,37,-229,-210,77,68
,415,2018/03/15 17:54:04.44,-1525,12378,-11157,-162,43,-142,60,-205,-202,59,41
,416,2018/03/15 17:54:04.46,-1689,12516,-11160,-155,49,-176,27,-204,-203,53,74
,417,2018/03/15 17:54:04.48,-1841,12661,-11052,-176,22,-204,-7,-198,-197,77,105
,418,2018/03/15 17:54:04.50,-1966,12691,-11092,-208,-16,-190,0,-192,-190,112,95
,419,2018/03/15 17:54:04.52,-2164,12688,-11185,-176,7,-154,20,-183,-174,84,67
,420,2018/03/15 17:54:04.54,-2209,12342,-11290,-159,11,-168,-7,-170,-161,74,87
,421,2018/03/15 17:54:04.56,-2403,12139,-11031,-190,-33,-210,-56,-157,-154,111,133
,422,2018/03/15 17:54:04.58,-2671,11675,-10878,-204,-49,-192,-33,-155,-159,126,112
,423,2018/03/15 17:54:04.60,-3106,11062,-11149,-181,-20,-161,12,-161,-173,100,74
,424,2018/03/15 17:54:04.62,-3478,10591,-11428,-154,28,-130,64,-182,-194,63,33
,425,2018/03/15 17:54:04.64,-3729,10350,-11317,-116,90,-108,119,-206,-227,13,-5
,426,2018/03/15 17:54:04.66,-3747,10200,-11483,-106,136,-102,158,-242,-260,-15,-28
,427,2018/03/15 17:54:04.68,-3844,10414,-11353,-95,177,-80,197,-272,-277,-41,-58
,428,2018/03/15 17:54:04.70,-3991,10563,-11296,-81,192,-65,198,-273,-263,-55,-66
,429,2018/03/15 17:54:04.72,-4170,10607,-11345,-58,198,-52,194,-256,-246,-70,-71
,430,2018/03/15 17:54:04.74,-4435,10677,-11158,-48,180,-54,162,-228,-216,-66,-54
,431,2018/03/15 17:54:04.76,-4809,10806,-10729,-60,141,-65,124,-201,-189,-40,-29
,432,2018/03/15 17:54:04.78,-5199,10998,-10417,-68,114,-66,107,-182,-173,-23,-20
,433,2018/03/15 17:54:04.80,-5553,11209,-10285,-60,101,-52,98,-161,-150,-20,-23
,434,2018/03/15 17:54:04.82,-5890,11416,-9966,-52,90,-51,86,-142,-137,-19,-17
,435,2018/03/15 17:54:04.84,-6234,11596,-10061,-39,90,-43,82,-129,-125,-25,-19
,436,2018/03/15 17:54:04.86,-6429,11549,-10120,-55,66,-81,38,-121,-119,-5,21
,437,2018/03/15 17:54:04.88,-6744,11361,-10239,-108,8,-154,-37,-116,-117,50,95
,438,2018/03/15 17:54:04.90,-6846,11234,-10336,-201,-88,-238,-128,-113,-110,144,183
,439,2018/03/15 17:54:04.92,-6720,11135,-10227,-265,-148,-256,-131,-117,-125,206,193
,440,2018/03/15 17:54:04.94,-6676,10990,-10212,-269,-140,-287,-159,-129,-128,204,223
,441,2018/03/15 17:54:04.96,-6556,10793,-10412,-282,-153,-285,-150,-129,-135,217,217
,442,2018/03/15 17:54:04.98,-6299,10685,-10515,-276,-137,-282,-134,-139,-148,206,208
,443,2018/03/15 17:54:05.00,-5958,10669,-10671,-289,-129,-292,-126,-160,-166,209,209
,444,2018/03/15 17:54:05.02,-5694,10378,-10919,-287,-122,-274,-119,-165,-155,204,196
,445,2018/03/15 17:54:05.04,-5514,10193,-11094,-253,-95,-233,-77,-158,-156,174,155
,446,2018/03/15 17:54:05.06,-5310,10016,-11202,-210,-51,-200,-46,-159,-154,130,123
,447,2018/03/15 17:54:05.08,-5210,9904,-11306,-183,-39,-173,-36,-144,-137,111,104
,448,2018/03/15 17:54:05.10,-5137,9750,-11605,-163,-28,-169,-36,-135,-133,95,102
,449,2018/03/15 17:54:05.12,-5078,9756,-11735,-181,-45,-203,-66,-136,-137,113,134
,450,2018/03/15 17:54:05.14,-4943,9593,-11984,-229,-79,-255,-93,-150,-162,154,174
,451,2018/03/15 17:54:05.16,-5246,9484,-11333,-234,-73,-151,-1,-161,-150,153,76
,452,2018/03/15 17:54:05.18,-5368,9304,-12149,-64,65,-7,98,-129,-105,0,-45
,453,2018/03/15 17:54:05.20,-5512,9395,-11953,32,121,61,138,-89,-77,-76,-99
,454,2018/03/15 17:54:05.22,-5710,9460,-11811,83,156,100,175,-73,-75,-119,-137
,455,2018/03/15 17:54:05.24,-5814,9687,-11794,96,177,66,153,-81,-87,-136,-109
,456,2018/03/15 17:54:05.26,-5897,9877,-12035,27,120,0,106,-93,-106,-73,-53
,457,2018/03/15 17:54:05.28,-6024,10019,-11567,-26,99,-41,93,-125,-134,-36,-26
,458,2018/03/15 17:54:05.30,-5902,9397,-11901,21,132,65,141,-111,-76,-76,-103
,459,2018/03/15 17:54:05.32,-5908,9270,-11727,-25,30,-165,-114,-55,-51,-2,139
,460,2018/03/15 17:54:05.34,-6010,9649,-11665,-285,-223,-400,-312,-62,-88,254,356
,461,2018/03/15 17:54:05.36,-5658,10199,-11316,-476,-360,-304,-185,-116,-119,418,244
,462,2018/03/15 17:54:05.38,-5946,9632,-11436,-12,66,122,119,-78,3,-27,-120
,463,2018/03/15 17:54:05.40,-5804,9478,-12032,60,-4,-1,-58,64,57,-28,29
,464,2018/03/15 17:54:05.42,-5668,9186,-12013,54,54,192,244,0,-52,-54,-218
,465,2018/03/15 17:54:05.44,-5633,9473,-12048,341,391,504,534,-50,-30,-366,-519
,466,2018/03/15 17:54:05.46,-5459,9396,-11847,590,637,539,659,-47,-120,-613,-599
,467,2018/03/15 17:54:05.48,-5207,9307,-12098,393,576,246,470,-183,-224,-484,-358
,468,2018/03/15 17:54:05.50,-5322,9234,-12243,125,374,24,304,-249,-280,-249,-164
,469,2018/03/15 17:54:05.52,-5140,9449,-12021,-62,234,-138,158,-296,-296,-86,-10
,470,2018/03/15 17:54:05.54,-5082,10298,-11916,-214,84,-276,40,-298,-316,65,118
,471,2018/03/15 17:54:05.56,-5267,9030,-12009,-332,33,-322,67,-365,-389,149,127
,472,2018/03/15 17:54:05.58,-5345,9886,-11979,-170,235,88,638,-405,-550,-32,-363
,473,2018/03/15 17:54:05.60,-5354,9714,-12140,343,1377,494,1779,-1034,-1285,-860,-1136
,474,2018/03/15 17:54:05.62,-5291,9626,-12032,530,1789,991,1795,-1259,-804,-1159,-1393
,475,2018/03/15 17:54:05.64,-5224,8970,-11891,1807,1797,1616,1679,10,-63,-1802,-1647
,476,2018/03/15 17:54:05.66,-5087,9583,-12303,-40,145,-1310,-1235,-185,-75,-52,1272
,477,2018/03/15 17:54:05.68,-5092,9369,-12207,-1858,-1843,-2048,-2048,-15,0,1850,2048
,478,2018/03/15 17:54:05.70,-4810,8957,-12796,-2048,-2048,-2048,-2048,0,0,2048,2048
,479,2018/03/15 17:54:05.72,-4820,7573,-13034,-2048,-2048,-2036,-2048,0,12,2048,2042
,480,2018/03/15 17:54:05.74,-4394,7353,-13706,-2023,-2038,-1578,-1691,15,113,2030,1634
,481,2018/03/15 17:54:05.76,-4463,8306,-12816,-111,-359,1934,1770,248,164,235,-1852
,482,2018/03/15 17:54:05.78,-4246,7837,-13310,1962,1802,1964,1804,160,160,-1882,-1884
,483,2018/03/15 17:54:05.80,-4632,6874,-13644,1963,1802,1963,1803,161,160,-1882,-1883
,484,2018/03/15 17:54:05.82,-4530,6673,-11865,1961,1799,1946,1791,162,155,-1880,-1868
,485,2018/03/15 17:54:05.84,-4214,6962,-11102,1958,1781,1938,1655,177,283,-1869,-1796
,486,2018/03/15 17:54:05.86,-3849,6277,-11669,1931,1397,1889,1118,534,771,-1664,-1503
,487,2018/03/15 17:54:05.88,-3494,7750,-13167,1716,1005,1391,881,711,510,-1360,-1136
,488,2018/03/15 17:54:05.90,-5470,4076,-12839,1182,791,1144,763,391,381,-986,-953
,489,2018/03/15 17:54:05.92,-2880,6518,-12524,1110,709,1100,711,401,389,-909,-905
,490,2018/03/15 17:54:05.94,-4006,7458,-15284,1091,717,1154,827,374,327,-904,-990
,491,2018/03/15 17:54:05.96,-1756,8975,-13737,1216,937,1079,818,279,261,-1076,-948
,492,2018/03/15 17:54:05.98,-1998,9739,-16578,987,744,864,614,243,250,-865,-739
,493,2018/03/15 17:54:06.00,6771,7884,-17266,779,546,592,370,233,222,-662,-481
,494,2018/03/15 17:54:06.02,-5022,6860,-6760,252,13,44,-171,239,215,-132,63
,495,2018/03/15 17:54:06.04,-16613,5680,-15247,-11,-210,78,-97,199,175,110,9
,496,2018/03/15 17:54:06.06,1334,7631,-10042,188,45,79,-55,143,134,-116,-12
,497,2018/03/15 17:54:06.08,-8676,5635,-9286,129,-1,251,99,130,152,-64,-175
,498,2018/03/15 17:54:06.10,-4470,9283,-12704,321,194,374,314,127,60,-257,-344
,499,2018/03/15 17:54:06.12,-10053,5899,-10055,301,252,543,527,49,16,-276,-535
,500,2018/03/15 17:54:06.14,30528,12468,-11391,849,837,1091,1077,12,14,-843,-1084
,501,2018/03/15 17:54:06.16,6107,6829,-12694,1041,1026,710,660,15,50,-1033,-685
,502,2018/03/15 17:54:06.18,-32767,-3607,-12725,560,503,448,306,57,142,-531,-377
,503,2018/03/15 17:54:06.20,-26756,615,-9821,321,125,141,15,196,126,-223,-78
,504,2018/03/15 17:54:06.22,-1027,10997,611,-136,-163,-269,-190,27,-79,149,229
,505,2018/03/15 17:54:06.24,-5673,6596,-1336,-359,-245,-355,-230,-114,-125,302,292
,506,2018/03/15 17:54:06.26,1363,6269,-7325,-272,-143,-232,-168,-129,-64,207,200
,507,2018/03/15 17:54:06.28,4544,3872,-10299,-203,-169,-258,-248,-34,-10,186,253
,508,2018/03/15 17:54:06.30,-9156,-357,264,-286,-290,-245,-246,4,1,288,245
,509,2018/03/15 17:54:06.32,-16153,7369,11924,-176,-213,-106,-128,37,22,194,117
,510,2018/03/15 17:54:06.34,-5958,16373,11758,-98,-119,-98,-126,21,28,108,112
,511,2018/03/15 17:54:06.36,-294,11020,8797,-199,-190,-208,-171,-9,-37,194,189
,512,2018/03/15 17:54:06.38,-3413,605,8808,-227,-89,-190,-19,-138,-171,158,104
,513,2018/03/15 17:54:06.40,-7558,-3637,11325,-90,64,-150,-12,-154,-138,13,81
,514,2018/03/15 17:54:06.42,-71,4155,15000,-45,37,-101,-55,-82,-46,4,78
,515,2018/03/15 17:54:06.44,6389,9547,25678,-151,-149,-49,-107,-2,58,150,78
,516,2018/03/15 17:54:06.46,-3684,4409,31377,-124,-235,91,-77,111,168,179,-7
,517,2018/03/15 17:54:06.48,-12754,-1489,24787,104,1,88,68,103,20,-52,-78
,518,2018/03/15 17:54:06.50,-4627,-1856,21994,188,256,-33,95,-68,-128,-222,-31
,519,2018/03/15 17:54:06.52,5479,-655,24339,55,195,-40,108,-140,-148,-125,-34
,520,2018/03/15 17:54:06.54,2475,-1297,28412,-104,22,2,118,-126,-116,41,-60
,521,2018/03/15 17:54:06.56,746,748,27287,-159,-89,-11,11,-70,-22,124,0
,522,2018/03/15 17:54:06.58,2485,976,22135,-24,-7,-58,-32,-17,-26,15,45
,523,2018/03/15 17:54:06.60,-2656,-2613,17757,98,161,-78,5,-63,-83,-129,36
,524,2018/03/15 17:54:06.62,-6315,-5173,18077,-4,98,-76,55,-102,-131,-47,10
,525,2018/03/15 17:54:06.64,199,-3523,20495,-137,-2,50,199,-135,-149,69,-124
,526,2018/03/15 17:54:06.66,2593,-2670,18738,-72,49,44,119,-121,-75,11,-81
,527,2018/03/15 17:54:06.68,3114,-2503,16154,-9,46,-153,-135,-55,-18,-18,144
,528,2018/03/15 17:54:06.70,6615,7319,955,-182,-201,-269,-284,19,15,191,276
,529,2018/03/15 17:54:06.72,-2601,-2232,15261,-38,-47,88,57,9,31,42,-72
,530,2018/03/15 17:54:06.74,556,-1511,15580,59,26,223,237,33,-14,-42,-230
,531,2018/03/15 17:54:06.76,1652,-4306,15188,35,85,124,167,-50,-43,-60,-145
,532,2018/03/15 17:54:06.78,1222,-2377,16764,141,195,25,63,-54,-38,-168,-44
,533,2018/03/15 17:54:06.80,1129,-2066,16492,205,241,59,94,-36,-35,-223,-76
,534,2018/03/15 17:54:06.82,2090,-1678,15773,137,160,161,205,-23,-44,-148,-183
,535,2018/03/15 17:54:06.84,-2260,-2190,16104,12,61,148,220,-49,-72,-36,-184
,536,2018/03/15 17:54:06.86,332,-784,16612,-56,35,-54,38,-91,-92,10,8
,537,2018/03/15 17:54:06.88,335,-1131,16312,-27,89,-136,-34,-116,-102,-31,85
,538,2018/03/15 17:54:06.90,-1880,1381,16171,46,162,-41,53,-116,-94,-104,-6
,539,2018/03/15 17:54:06.92,1163,-897,15936,80,111,204,185,-31,19,-95,-194
,540,2018/03/15 17:54:06.94,-3609,579,16240,54,8,217,184,46,33,-31,-200
,541,2018/03/15 17:54:06.96,-4017,-2904,16636,72,66,60,73,6,-13,-69,-66
,542,2018/03/15 17:54:06.98,2488,-701,18144,108,157,-58,-26,-49,-32,-132,42
,543,2018/03/15 17:54:07.00,8837,-1242,22980,117,119,-5,-58,-2,53,-118,31
,544,2018/03/15 17:54:07.02,3359,8437,-11527,-38,-167,-125,-228,129,103,102,176
,545,2018/03/15 17:54:07.04,8987,-4665,32767,-168,-116,85,126,-52,-41,142,-105
,546,2018/03/15 17:54:07.06,8694,7023,32767,42,254,120,433,-212,-313,-148,-276
,547,2018/03/15 17:54:07.08,5889,646,14453,246,559,-14,80,-313,-94,-402,-33
,548,2018/03/15 17:54:07.10,-1157,3419,10356,94,8,78,0,86,78,-51,-39
,549,2018/03/15 17:54:07.12,1263,-1509,17793,47,70,168,290,-23,-122,-58,-229
,550,2018/03/15 17:54:07.14,214,-728,18143,-18,68,130,113,-86,17,-25,-121
,551,2018/03/15 17:54:07.16,3245,690,16599,81,40,36,-4,41,40,-60,-16
,552,2018/03/15 17:54:07.18,1582,227,18682,172,156,-12,-15,16,3,-164,13
,553,2018/03/15 17:54:07.20,-348,-501,15614,125,111,86,125,14,-39,-118,-105
,554,2018/03/15 17:54:07.22,186,-655,16559,19,69,188,270,-50,-82,-44,-229
,555,2018/03/15 17:54:07.24,-638,-805,15308,24,194,158,298,-170,-140,-109,-228
,556,2018/03/15 17:54:07.26,359,-426,16828,148,335,52,253,-187,-201,-241,-152
,557,2018/03/15 17:54:07.28,-85,-501,16423,216,332,41,240,-116,-199,-274,-140
,558,2018/03/15 17:54:07.30,720,-295,17332,148,254,151,279,-106,-128,-201,-215
,559,2018/03/15 17:54:07.32,-97,-625,16003,30,180,190,235,-150,-45,-105,-212
,560,2018/03/15 17:54:07.34,129,-619,16287,22,176,117,183,-154,-66,-99,-150
,561,2018/03/15 17:54:07.36,-426,-719,15684,146,224,17,148,-78,-131,-185,-82
,562,2018/03/15 17:54:07.38,304,-464,16710,186,224,27,184,-38,-157,-205,-105
,563,2018/03/15 17:54:07.40,186,-511,16553,99,177,142,223,-78,-81,-138,-182
,564,2018/03/15 17:54:07.42,470,-373,16897,-3,135,164,164,-138,0,-66,-164
,565,2018/03/15 17:54:07.44,-60,-636,16107,11,76,46,1,-65,45,-43,-23
,566,2018/03/15 17:54:07.46,-27,-554,16172,81,10,-83,-86,71,3,-45,84
,567,2018/03/15 17:54:07.48,-180,-640,16077,85,-38,-40,-61,123,21,-23,50
,568,2018/03/15 17:54:07.50,268,-430,16666,19,-61,128,34,80,94,21,-81
,569,2018/03/15 17:54:07.52,216,-497,16671,-12,2,169,75,-14,94,5,-122
,570,2018/03/15 17:54:07.54,275,-457,16628,51,50,82,36,1,46,-50,-59
,571,2018/03/15 17:54:07.56,-16,-621,16196,197,115,46,64,82,-18,-156,-55
,572,2018/03/15 17:54:07.58,-58,-595,16134,217,126,99,113,91,-14,-171,-106
,573,2018/03/15 17:54:07.60,-50,-641,16285,79,50,189,114,29,75,-64,-151
,574,2018/03/15 17:54:07.62,168,-491,16559,24,77,192,137,-53,55,-50,-164
,575,2018/03/15 17:54:07.64,309,-394,16688,102,119,41,2,-17,39,-110,-21
,576,2018/03/15 17:54:07.66,162,-509,16463,110,3,-78,-100,107,22,-56,89
,577,2018/03/15 17:54:07.68,-20,-626,16208,99,-36,68,0,135,68,-31,-34
,578,2018/03/15 17:54:07.70,-37,-601,16168,38,-54,161,-12,92,173,8,-74
,579,2018/03/15 17:54:07.72,143,-508,16453,-40,-158,83,-187,118,270,99,52
,580,2018/03/15 17:54:07.74,2291,884,19536,46,-276,28,-278,322,306,115,125
,581,2018/03/15 17:54:07.76,-678,-343,14129,200,-35,39,7,235,32,-82,-23
,582,2018/03/15 17:54:07.78,-526,-417,16163,183,122,162,180,61,-18,-152,-171
,583,2018/03/15 17:54:07.80,270,-618,16027,80,156,240,314,-76,-74,-118,-277
,584,2018/03/15 17:54:07.82,763,-516,17228,48,208,151,231,-160,-80,-128,-191
,585,2018/03/15 17:54:07.84,320,-402,16323,126,230,27,126,-104,-99,-178,-76
,586,2018/03/15 17:54:07.86,216,-388,16474,194,244,8,109,-50,-101,-219,-58
,587,2018/03/15 17:54:07.88,-398,-668,15937,101,124,120,176,-23,-56,-112,-148
,588,2018/03/15 17:54:07.90,97,-572,16514,34,112,237,289,-78,-52,-73,-263
,589,2018/03/15 17:54:07.92,316,-484,16392,96,271,182,387,-175,-205,-183,-284
,590,2018/03/15 17:54:07.94,-247,-700,15958,221,485,86,325,-264,-239,-353,-205
,591,2018/03/15 17:54:07.96,410,-395,17024,272,452,141,401,-180,-260,-362,-271
,592,2018/03/15 17:54:07.98,-76,-447,16435,220,481,257,523,-261,-266,-350,-390
,593,2018/03/15 17:54:08.00,440,-325,16876,30,198,102,136,-168,-34,-114,-119
,594,2018/03/15 17:54:08.02,-232,-673,15903,-63,-9,22,80,-54,-58,36,-51
,595,2018/03/15 17:54:08.04,-117,-799,16362,119,233,-19,113,-114,-132,-176,-47
,596,2018/03/15 17:54:08.06,-416,-948,16001,145,227,-3,73,-82,-76,-186,-35
,597,2018/03/15 17:54:08.08,277,-462,16878,26,38,106,104,-12,2,-32,-105
,598,2018/03/15 17:54:08.10,361,-316,16536,-41,-26,158,164,-15,-6,33,-161
,599,2018/03/15 17:54:08.12,202,-241,16618,71,142,104,189,-71,-85,-106,-146
,600,2018/03/15 17:54:08.14,-8,-583,16021,219,328,46,176,-109,-130,-273,-111
,601,2018/03/15 17:54:08.16,-56,-538,16413,213,317,108,243,-104,-135,-265,-175
,602,2018/03/15 17:54:08.18,153,-550,16077,108,237,245,406,-129,-161,-172,-325
,603,2018/03/15 17:54:08.20,1142,194,20012,81,297,245,437,-216,-192,-189,-341
,604,2018/03/15 17:54:08.22,1725,-275,17867,166,387,138,354,-221,-216,-276,-246
,605,2018/03/15 17:54:08.24,216,-497,16748,273,505,85,342,-232,-257,-389,-213
,606,2018/03/15 17:54:08.26,-521,-508,15568,246,479,190,470,-233,-280,-362,-330
,607,2018/03/15 17:54:08.28,-556,-414,15678,133,395,267,512,-262,-245,-264,-389
,608,2018/03/15 17:54:08.30,34,-111,16707,78,336,228,434,-258,-206,-207,-331
,609,2018/03/15 17:54:08.32,1050,-449,17099,174,395,96,267,-221,-171,-284,-181
,610,2018/03/15 17:54:08.34,348,-724,16617,220,341,9,108,-121,-99,-280,-58
,611,2018/03/15 17:54:08.36,-781,-803,15802,115,152,57,88,-37,-31,-133,-72
,612,2018/03/15 17:54:08.38,-279,-521,16340,-51,-82,80,-99,31,179,66,9
,613,2018/03/15 17:54:08.40,-504,-644,16316,-113,-341,-14,-384,228,370,227,199
,614,2018/03/15 17:54:08.42,60,-294,16721,-26,-469,-103,-620,443,517,247,361
,615,2018/03/15 17:54:08.44,509,-268,16797,52,-587,-131,-727,639,596,267,429
,616,2018/03/15 17:54:08.46,742,-501,16856,-38,-811,-67,-1068,773,1001,424,567
,617,2018/03/15 17:54:08.48,-39,-678,16440,-239,-1379,-135,-1505,1140,1370,809,820
,618,2018/03/15 17:54:08.50,-164,-672,15976,-241,-1411,-98,-1054,1170,956,826,576
,619,2018/03/15 17:54:08.52,89,-528,16118,-76,-637,-204,-370,561,166,356,287
,620,2018/03/15 17:54:08.54,238,-475,16614,-48,-158,-201,-143,110,-58,103,172
,621,2018/03/15 17:54:08.56,299,-543,16800,-147,-160,-73,-63,13,-10,153,68
,622,2018/03/15 17:54:08.58,265,-486,16543,-137,3,87,172,-140,-85,67,-129
,623,2018/03/15 17:54:08.60,-131,-546,16190,-22,250,30,245,-272,-215,-114,-137
,624,2018/03/15 17:54:08.62,-197,-651,16041,98,300,-51,247,-202,-298,-199,-98
,625,2018/03/15 17:54:08.64,22,-644,16204,108,281,-24,295,-173,-319,-194,-135
,626,2018/03/15 17:54:08.66,269,-531,16534,5,283,86,338,-278,-252,-144,-212
,627,2018/03/15 17:54:08.68,298,-457,16702,-66,300,99,347,-366,-248,-117,-223
,628,2018/03/15 17:54:08.70,179,-550,16459,-3,378,13,338,-381,-325,-187,-175
,629,2018/03/15 17:54:08.72,-75,-587,16265,144,373,7,306,-229,-299,-258,-156
,630,2018/03/15 17:54:08.74,-124,-549,16151,197,311,119,289,-114,-170,-254,-204
,631,2018/03/15 17:54:08.76,159,-533,16324,121,219,240,223,-98,17,-170,-231
,632,2018/03/15 17:54:08.78,279,-552,16555,59,136,210,111,-77,99,-97,-160
,633,2018/03/15 17:54:08.80,294,-532,16606,137,113,108,56,24,52,-125,-82
,634,2018/03/15 17:54:08.82,83,-536,16443,236,90,53,51,146,2,-163,-52
,635,2018/03/15 17:54:08.84,-90,-575,16292,192,66,126,93,126,33,-129,-109
,636,2018/03/15 17:54:08.86,-113,-612,16185,68,48,201,90,20,111,-58,-145
,637,2018/03/15 17:54:08.88,122,-568,16454,22,64,154,73,-42,81,-43,-113
,638,2018/03/15 17:54:08.90,231,-466,16538,111,108,46,82,3,-36,-109,-64
,639,2018/03/15 17:54:08.92,252,-518,16495,203,149,45,148,54,-103,-176,-96
,640,2018/03/15 17:54:08.94,76,-585,16377,187,169,164,197,18,-33,-178,-180
,641,2018/03/15 17:54:08.96,-76,-544,16293,69,137,212,164,-68,48,-103,-188
,642,2018/03/15 17:54:08.98,18,-566,16290,18,138,106,134,-120,-28,-78,-120
,643,2018/03/15 17:54:09.00,134,-553,16448,92,166,-4,122,-74,-126,-129,-59
,644,2018/03/15 17:54:09.02,274,-516,16518,160,167,-13,124,-7,-137,-163,-55
,645,2018/03/15 17:54:09.04,167,-498,16455,71,81,89,110,-10,-21,-76,-99
,646,2018/03/15 17:54:09.06,159,-521,16280,-17,68,160,119,-85,41,-25,-139
,647,2018/03/15 17:54:09.08,-105,-567,16317,11,109,97,79,-98,18,-60,-88
,648,2018/03/15 17:54:09.10,-25,-599,16320,131,119,2,81,12,-79,-125,-41
,649,2018/03/15 17:54:09.12,147,-548,16461,152,107,13,96,45,-83,-129,-54
,650,2018/03/15 17:54:09.14,209,-533,16491,93,86,156,138,7,18,-89,-147
,651,2018/03/15 17:54:09.16,146,-558,16419,6,76,170,101,-70,69,-41,-135
,652,2018/03/15 17:54:09.18,53,-528,16314,17,94,51,80,-77,-29,-55,-65
,653,2018/03/15 17:54:09.20,70,-541,16333,104,129,-36,94,-25,-130,-116,-29
,654,2018/03/15 17:54:09.22,11,-547,16371,155,132,75,149,23,-74,-143,-112
,655,2018/03/15 17:54:09.24,81,-550,16469,146,151,276,238,-5,38,-148,-257
,656,2018/03/15 17:54:09.26,201,-500,16498,126,218,284,232,-92,52,-172,-258
,657,2018/03/15 17:54:09.28,101,-526,16402,154,229,142,179,-75,-37,-191,-160
,658,2018/03/15 17:54:09.30,42,-553,16298,228,211,43,159,17,-116,-219,-101
,659,2018/03/15 17:54:09.32,61,-573,16331,193,189,101,220,4,-119,-191,-160
,660,2018/03/15 17:54:09.34,65,-498,16411,96,198,217,261,-102,-44,-147,-239
,661,2018/03/15 17:54:09.36,76,-521,16493,34,206,172,199,-172,-27,-120,-185
,662,2018/03/15 17:54:09.38,148,-519,16476,94,217,72,188,-123,-116,-155,-130
,663,2018/03/15 17:54:09.40,120,-581,16391,196,226,10,165,-30,-155,-211,-87
,664,2018/03/15 17:54:09.42,117,-570,16368,147,151,78,158,-4,-80,-149,-118
,665,2018/03/15 17:54:09.44,75,-560,16407,22,111,158,172,-89,-14,-66,-165
,666,2018/03/15 17:54:09.46,191,-528,16425,-5,170,134,172,-175,-38,-82,-153
,667,2018/03/15 17:54:09.48,137,-551,16483,88,178,14,101,-90,-87,-133,-57
,668,2018/03/15 17:54:09.50,88,-514,16435,148,133,-35,104,15,-139,-140,-34
,669,2018/03/15 17:54:09.52,24,-564,16308,85,78,65,100,7,-35,-81,-82
,670,2018/03/15 17:54:09.54,44,-562,16293,3,69,170,118,-66,52,-36,-144
,671,2018/03/15 17:54:09.56,129,-591,16317,3,105,110,100,-102,10,-54,-105
,672,2018/03/15 17:54:09.58,51,-537,16444,114,130,11,43,-16,-32,-122,-27
,673,2018/03/15 17:54:09.60,172,-554,16409,176,73,8,72,103,-64,-124,-40
,674,2018/03/15 17:54:09.62,166,-551,16417,89,61,105,115,28,-10,-75,-110
,675,2018/03/15 17:54:09.64,190,-521,16461,-8,69,146,88,-77,58,-30,-117
,676,2018/03/15 17:54:09.66,124,-477,16427,-7,65,84,64,-72,20,-29,-74
,677,2018/03/15 17:54:09.68,76,-512,16422,120,134,-10,114,-14,-124,-127,-52
,678,2018/03/15 17:54:09.70,36,-569,16399,153,136,0,94,17,-94,-144,-47
,679,2018/03/15 17:54:09.72,95,-584,16421,61,49,109,81,12,28,-55,-95
,680,2018/03/15 17:54:09.74,35,-613,16390,-25,34,144,77,-59,67,-4,-110
,681,2018/03/15 17:54:09.76,164,-509,16333,20,112,78,100,-92,-22,-66,-89
,682,2018/03/15 17:54:09.78,157,-590,16384,146,138,-8,73,8,-81,-142,-32
,683,2018/03/15 17:54:09.80,19,-570,16347,157,95,29,113,62,-84,-126,-71
,684,2018/03/15 17:54:09.82,73,-501,16372,52,82,123,109,-30,14,-67,-116
,685,2018/03/15 17:54:09.84,127,-493,16402,-37,51,132,78,-88,54,-7,-105
,686,2018/03/15 17:54:09.86,162,-573,16495,28,109,35,65,-81,-30,-68,-50
,687,2018/03/15 17:54:09.88,130,-507,16423,138,100,-28,61,38,-89,-119,-16
,688,2018/03/15 17:54:09.90,131,-527,16376,124,96,43,129,28,-86,-110,-86
,689,2018/03/15 17:54:09.92,125,-562,16360,45,103,168,149,-58,19,-74,-158
,690,2018/03/15 17:54:09.94,79,-573,16453,-15,102,132,100,-117,32,-43,-116
,691,2018/03/15 17:54:09.96,77,-561,16442,54,121,36,92,-67,-56,-87,-64
,692,2018/03/15 17:54:09.98,145,-559,16404,163,146,-12,119,17,-131,-154,-53
,693,2018/03/15 17:54:10.00,123,-546,16367,133,128,75,142,5,-67,-130,-108
,694,2018/03/15 17:54:10.02,111,-538,16349,22,78,166,138,-56,28,-50,-152
,695,2018/03/15 17:54:10.04,61,-548,16337,-5,127,128,112,-132,16,-61,-120
,696,2018/03/15 17:54:10.06,7,-519,16396,74,114,-1,66,-40,-67,-94,-32
,697,2018/03/15 17:54:10.08,-6,-546,16459,153,122,-6,100,31,-106,-137,-47
,698,2018/03/15 17:54:10.10,103,-535,16443,125,81,99,93,44,6,-103,-96
,699,2018/03/15 17:54:10.12,55,-546,16422,4,29,150,72,-25,78,-16,-111
,700,2018/03/15 17:54:10.14,134,-572,16381,-22,56,88,43,-78,45,-17,-65
,701,2018/03/15 17:54:10.16,105,-577,16402,90,76,0,57,14,-57,-83,-28
,702,2018/03/15 17:54:10.18,172,-557,16418,164,130,-2,124,34,-126,-147,-61
,703,2018/03/15 17:54:10.20,126,-556,16463,89,94,107,123,-5,-16,-91,-115
,704,2018/03/15 17:54:10.22,21,-569,16416,-2,68,165,93,-70,72,-33,-129
,705,2018/03/15 17:54:10.24,91,-525,16356,3,80,77,79,-77,-2,-41,-78
,706,2018/03/15 17:54:10.26,95,-523,16306,115,129,-11,76,-14,-87,-122,-32
,707,2018/03/15 17:54:10.28,213,-524,16350,156,106,2,93,50,-91,-131,-47
,708,2018/03/15 17:54:10.30,79,-538,16434,71,76,134,141,-5,-7,-73,-137
,709,2018/03/15 17:54:10.32,-5,-525,16451,5,106,167,114,-101,53,-55,-140
,710,2018/03/15 17:54:10.34,101,-509,16391,20,91,57,51,-71,6,-55,-54
,711,2018/03/15 17:54:10.36,154,-487,16443,138,90,-12,49,48,-61,-114,-18
,712,2018/03/15 17:54:10.38,76,-502,16382,166,108,32,115,58,-83,-137,-73
,713,2018/03/15 17:54:10.40,156,-547,16420,49,75,135,131,-26,4,-62,-133
,714,2018/03/15 17:54:10.42,117,-528,16414,-15,99,150,108,-114,42,-42,-129
,715,2018/03/15 17:54:10.44,-12,-551,16415,43,100,50,52,-57,-2,-71,-51
,716,2018/03/15 17:54:10.46,18,-529,16332,149,102,-22,60,47,-82,-125,-19
,717,2018/03/15 17:54:10.48,83,-567,16430,135,78,39,105,57,-66,-106,-72
,718,2018/03/15 17:54:10.50,102,-568,16351,32,84,166,154,-52,12,-58,-160
,719,2018/03/15 17:54:10.52,125,-553,16412,8,134,153,132,-126,21,-71,-142
,720,2018/03/15 17:54:10.54,147,-507,16360,64,141,28,92,-77,-64,-102,-60
,721,2018/03/15 17:54:10.56,64,-553,16396,152,108,-19,49,44,-68,-130,-15
,722,2018/03/15 17:54:10.58,101,-569,16427,126,51,64,91,75,-27,-88,-77
,723,2018/03/15 17:54:10.60,87,-562,16391,11,58,149,94,-47,55,-34,-121
,724,2018/03/15 17:54:10.62,147,-519,16382,-27,37,108,27,-64,81,-5,-67
,725,2018/03/15 17:54:10.64,149,-589,16459,67,66,0,31,1,-31,-66,-15
,726,2018/03/15 17:54:10.66,171,-560,16421,148,74,-20,49,74,-69,-111,-14
,727,2018/03/15 17:54:10.68,70,-535,16421,101,45,80,91,56,-11,-73,-85
,728,2018/03/15 17:54:10.70,17,-534,16424,-1,69,154,102,-70,52,-34,-128
,729,2018/03/15 17:54:10.72,21,-562,16386,-15,69,110,78,-84,32,-27,-94
,730,2018/03/15 17:54:10.74,75,-498,16375,112,130,2,70,-18,-68,-121,-36
,731,2018/03/15 17:54:10.76,90,-544,16383,138,78,-16,59,60,-75,-108,-21
,732,2018/03/15 17:54:10.78,37,-538,16363,83,50,104,103,33,1,-66,-103
,733,2018/03/15 17:54:10.80,53,-484,16408,-13,78,152,134,-91,18,-32,-143
,734,2018/03/15 17:54:10.82,88,-520,16434,-1,118,91,97,-119,-6,-58,-94
,735,2018/03/15 17:54:10.84,111,-562,16460,121,128,-15,69,-7,-84,-124,-27
,736,2018/03/15 17:54:10.86,151,-499,16494,148,85,0,74,63,-74,-116,-37
,737,2018/03/15 17:54:10.88,171,-546,16391,61,63,122,121,-2,1,-62,-121
,738,2018/03/15 17:54:10.90,165,-571,16408,-6,100,164,129,-106,35,-47,-146
,739,2018/03/15 17:54:10.92,100,-536,16350,19,110,60,81,-91,-21,-64,-70
,740,2018/03/15 17:54:10.94,95,-573,16402,132,135,-13,93,-3,-106,-133,-40
,741,2018/03/15 17:54:10.96,66,-559,16450,154,102,22,94,52,-72,-128,-58
,742,2018/03/15 17:54:10.98,94,-533,16420,44,61,130,111,-17,19,-52,-120
,743,2018/03/15 17:54:11.00,104,-586,16392,-22,87,148,107,-109,41,-32,-127
,744,2018/03/15 17:54:11.02,72,-564,16343,39,112,44,68,-73,-24,-75,-56
,745,2018/03/15 17:54:11.04,74,-558,16404,138,108,-32,60,30,-92,-123,-14
,746,2018/03/15 17:54:11.06,106,-532,16483,127,84,38,110,43,-72,-105,-74
,747,2018/03/15 17:54:11.08,108,-543,16450,29,64,146,99,-35,47,-46,-122
,748,2018/03/15 17:54:11.10,96,-565,16470,-21,49,129,50,-70,79,-14,-89
,749,2018/03/15 17:54:11.12,149,-545,16436,50,77,17,44,-27,-27,-63,-30
,750,2018/03/15 17:54:11.14,127,-561,16341,160,117,-17,89,43,-106,-138,-36
,751,2018/03/15 17:54:11.16,76,-532,16330,123,95,46,106,28,-60,-109,-76
,752,2018/03/15 17:54:11.18,91,-574,16380,6,58,144,86,-52,58,-32,-115
,753,2018/03/15 17:54:11.20,26,-488,16492,-32,72,99,76,-104,23,-20,-87
,754,2018/03/15 17:54:11.22,9,-556,16412,65,117,0,73,-52,-73,-91,-36
,755,2018/03/15 17:54:11.24,76,-515,16430,152,113,-19,80,39,-99,-132,-30
,756,2018/03/15 17:54:11.26,76,-605,16402,101,72,80,124,29,-44,-86,-102
,757,2018/03/15 17:54:11.28,92,-593,16384,0,103,160,140,-103,20,-51,-150
,758,2018/03/15 17:54:11.30,99,-519,16418,-8,94,100,64,-102,36,-43,-82
,759,2018/03/15 17:54:11.32,57,-572,16363,100,106,1,69,-6,-68,-103,-35
,760,2018/03/15 17:54:11.34,117,-574,16419,165,108,-6,74,57,-80,-136,-34
,761,2018/03/15 17:54:11.36,186,-534,16428,78,54,96,105,24,-9,-66,-100
,762,2018/03/15 17:54:11.38,60,-559,16447,-13,60,152,81,-73,71,-23,-116
,763,2018/03/15 17:54:11.40,111,-552,16435,-2,69,79,60,-71,19,-33,-69
,764,2018/03/15 17:54:11.42,40,-594,16347,107,95,-27,41,12,-68,-101,-7
,765,2018/03/15 17:54:11.44,105,-547,16355,141,83,-2,81,58,-83,-112,-39
,766,2018/03/15 17:54:11.46,148,-570,16375,64,56,118,101,8,17,-60,-109
,767,2018/03/15 17:54:11.48,32,-533,16449,-12,58,161,94,-70,67,-23,-127
,768,2018/03/15 17:54:11.50,21,-549,16435,17,96,58,86,-79,-28,-56,-72
,769,2018/03/15 17:54:11.52,18,-524,16422,135,153,-8,113,-18,-121,-144,-52
,770,2018/03/15 17:54:11.54,100,-526,16367,171,146,56,157,25,-101,-158,-106
,771,2018/03/15 17:54:11.56,113,-553,16384,68,105,142,129,-37,13,-86,-135
,772,2018/03/15 17:54:11.58,102,-524,16433,-34,65,141,96,-99,45,-15,-118
,773,2018/03/15 17:54:11.60,181,-563,16472,33,103,40,76,-70,-36,-68,-58
,774,2018/03/15 17:54:11.62,16,-534,16460,136,112,-35,48,24,-83,-124,-6
,775,2018/03/15 17:54:11.64,36,-587,16378,127,56,45,93,71,-48,-91,-69
,776,2018/03/15 17:54:11.66,144,-559,16393,36,59,153,116,-23,37,-47,-134
,777,2018/03/15 17:54:11.68,192,-560,16398,-13,90,140,96,-103,44,-38,-118
,778,2018/03/15 17:54:11.70,181,-496,16387,62,110,24,63,-48,-39,-86,-43
,779,2018/03/15 17:54:11.72,57,-571,16450,146,116,-22,87,30,-109,-131,-32
,780,2018/03/15 17:54:11.74,75,-527,16420,129,76,68,86,53,-18,-102,-77
,781,2018/03/15 17:54:11.76,-23,-553,16397,24,72,176,174,-48,2,-48,-175
,782,2018/03/15 17:54:11.78,74,-543,16400,1,153,131,138,-152,-7,-77,-134
,783,2018/03/15 17:54:11.80,132,-548,16449,88,137,19,69,-49,-50,-112,-44
,784,2018/03/15 17:54:11.82,139,-540,16509,171,118,-3,87,53,-90,-144,-42
,785,2018/03/15 17:54:11.84,68,-549,16417,121,80,86,100,41,-14,-100,-93
,786,2018/03/15 17:54:11.86,43,-547,16360,-6,40,150,75,-46,75,-17,-112
,787,2018/03/15 17:54:11.88,80,-523,16404,-14,50,104,48,-64,56,-18,-76
,788,2018/03/15 17:54:11.90,162,-528,16429,100,79,-8,26,21,-34,-89,-9
,789,2018/03/15 17:54:11.92,131,-573,16388,148,62,-16,51,86,-67,-105,-17
,790,2018/03/15 17:54:11.94,108,-553,16359,82,47,105,104,35,1,-64,-104
,791,2018/03/15 17:54:11.96,190,-569,16405,2,79,156,111,-77,45,-40,-133
,792,2018/03/15 17:54:11.98,64,-524,16376,-5,80,58,36,-85,22,-37,-47
,793,2018/03/15 17:54:12.00,10,-534,16404,107,114,-9,96,-7,-105,-110,-43
,794,2018/03/15 17:54:12.02,83,-526,16391,167,139,13,116,28,-103,-153,-64
,795,2018/03/15 17:54:12.04,139,-534,16412,73,73,121,100,0,21,-73,-110
,796,2018/03/15 17:54:12.06,130,-560,16415,-22,62,148,110,-84,38,-20,-129
,797,2018/03/15 17:54:12.08,72,-574,16405,7,112,48,71,-105,-23,-59,-59
,798,2018/03/15 17:54:12.10,95,-569,16376,123,118,-16,76,5,-92,-120,-30
,799,2018/03/15 17:54:12.12,36,-534,16410,157,83,37,70,74,-33,-120,-53
,800,2018/03/15 17:54:12.14,110,-483,16436,58,41,134,90,17,44,-49,-112
,801,2018/03/15 17:54:12.16,109,-566,16405,-27,45,140,74,-72,66,-9,-107
,802,2018/03/15 17:54:12.18,121,-551,16346,42,113,58,97,-71,-39,-77,-77
,803,2018/03/15 17:54:12.20,84,-531,16408,155,123,-20,54,32,-74,-139,-17
,804,2018/03/15 17:54:12.22,72,-535,16441,141,67,51,83,74,-32,-104,-67
,805,2018/03/15 17:54:12.24,62,-559,16450,42,47,148,88,-5,60,-44,-118
,806,2018/03/15 17:54:12.26,86,-551,16450,-30,47,119,74,-77,45,-8,-96
,807,2018/03/15 17:54:12.28,166,-504,16421,45,138,25,124,-93,-99,-91,-74
,808,2018/03/15 17:54:12.30,165,-601,16404,160,157,-19,90,3,-109,-158,-35
,809,2018/03/15 17:54:12.32,170,-559,16374,120,90,60,138,30,-78,-105,-99
,810,2018/03/15 17:54:12.34,116,-524,16395,15,103,152,129,-88,23,-59,-140
,811,2018/03/15 17:54:12.36,106,-553,16399,-27,56,117,46,-83,71,-14,-81
,812,2018/03/15 17:54:12.38,76,-506,16422,70,87,7,75,-17,-68,-78,-41
,813,2018/03/15 17:54:12.40,125,-576,16383,142,116,-23,97,26,-120,-129,-37
,814,2018/03/15 17:54:12.42,63,-561,16360,94,92,64,132,2,-68,-93,-98
,815,2018/03/15 17:54:12.44,65,-545,16444,-13,82,142,124,-95,18,-34,-133
,816,2018/03/15 17:54:12.46,48,-530,16465,-18,115,100,96,-133,4,-48,-98
,817,2018/03/15 17:54:12.48,5,-535,16413,98,115,5,82,-17,-77,-106,-43
,818,2018/03/15 17:54:12.50,113,-544,16422,166,129,-4,97,37,-101,-147,-46
,819,2018/03/15 17:54:12.52,143,-529,16430,87,67,102,118,20,-16,-77,-110
,820,2018/03/15 17:54:12.54,124,-483,16424,-4,81,165,122,-85,43,-38,-143
,821,2018/03/15 17:54:12.56,157,-518,16376,2,92,76,56,-90,20,-47,-66
,822,2018/03/15 17:54:12.58,48,-584,16391,114,106,-9,72,8,-81,-110,-31
,823,2018/03/15 17:54:12.60,127,-530,16430,161,96,14,88,65,-74,-128,-51
,824,2018/03/15 17:54:12.62,67,-524,16427,79,82,114,121,-3,-7,-80,-117
,825,2018/03/15 17:54:12.64,105,-555,16334,-34,62,132,77,-96,55,-14,-104
,826,2018/03/15 17:54:12.66,96,-552,16375,2,63,57,28,-61,29,-32,-42
,827,2018/03/15 17:54:12.68,171,-587,16373,124,77,-20,45,47,-65,-100,-12
,828,2018/03/15 17:54:12.70,96,-546,16399,152,70,26,56,82,-30,-111,-41
,829,2018/03/15 17:54:12.72,-36,-507,16448,54,25,139,93,29,46,-39,-116
,830,2018/03/15 17:54:12.74,40,-518,16469,-13,55,159,64,-68,95,-21,-111
,831,2018/03/15 17:54:12.76,56,-491,16454,47,79,55,80,-32,-25,-63,-67
,832,2018/03/15 17:54:12.78,92,-547,16375,156,144,-21,91,12,-112,-150,-35
,833,2018/03/15 17:54:12.80,123,-549,16389,140,89,31,70,51,-39,-114,-50
,834,2018/03/15 17:54:12.82,53,-606,16428,34,48,150,111,-14,39,-41,-130
,835,2018/03/15 17:54:12.84,81,-563,16425,-17,83,143,90,-100,53,-33,-116
,836,2018/03/15 17:54:12.86,40,-523,16388,53,104,24,68,-51,-44,-78,-46
,837,2018/03/15 17:54:12.88,141,-571,16426,158,121,-10,85,37,-95,-139,-37
,838,2018/03/15 17:54:12.90,158,-531,16422,133,90,58,105,43,-47,-111,-81
,839,2018/03/15 17:54:12.92,101,-551,16359,9,56,144,104,-47,40,-32,-124
,840,2018/03/15 17:54:12.94,42,-537,16361,-22,86,123,98,-108,25,-32,-110
,841,2018/03/15 17:54:12.96,29,-519,16426,88,138,28,115,-50,-87,-113,-71
,842,2018/03/15 17:54:12.98,28,-561,16389,170,152,-14,96,18,-110,-161,-41
,843,2018/03/15 17:54:13.00,105,-544,16402,104,102,79,143,2,-64,-103,-111
,844,2018/03/15 17:54:13.02,139,-511,16450,-3,86,145,114,-89,31,-41,-129
,845,2018/03/15 17:54:13.04,126,-542,16460,-21,88,89,56,-109,33,-33,-72
,846,2018/03/15 17:54:13.06,108,-541,16375,90,90,1,58,0,-57,-90,-29
,847,2018/03/15 17:54:13.08,56,-545,16343,162,110,-8,96,52,-104,-136,-44
,848,2018/03/15 17:54:13.10,13,-534,16344,87,84,96,112,3,-16,-85,-104
,849,2018/03/15 17:54:13.12,13,-532,16368,-14,50,152,83,-64,69,-18,-117
,850,2018/03/15 17:54:13.14,151,-518,16496,-5,71,80,58,-76,22,-33,-69
,851,2018/03/15 17:54:13.16,108,-586,16480,111,96,-14,39,15,-53,-103,-12
,852,2018/03/15 17:54:13.18,108,-558,16367,155,70,17,59,85,-42,-112,-38
,853,2018/03/15 17:54:13.20,44,-543,16362,77,24,128,78,53,50,-50,-103
,854,2018/03/15 17:54:13.22,145,-566,16354,-18,32,160,75,-50,85,-7,-117
,855,2018/03/15 17:54:13.24,158,-535,16434,19,80,64,65,-61,-1,-49,-64
,856,2018/03/15 17:54:13.26,114,-524,16466,128,119,-19,84,9,-103,-123,-32
,857,2018/03/15 17:54:13.28,143,-558,16423,150,99,27,82,51,-55,-124,-54
,858,2018/03/15 17:54:13.30,138,-558,16387,59,45,140,93,14,47,-52,-116
,859,2018/03/15 17:54:13.32,13,-540,16346,-18,44,137,57,-62,80,-13,-97
,860,2018/03/15 17:54:13.34,42,-552,16399,12,65,18,34,-53,-16,-38,-26
,861,2018/03/15 17:54:13.36,103,-511,16454,118,93,-36,77,25,-113,-105,-20
,862,2018/03/15 17:54:13.38,74,-556,16450,132,106,36,115,26,-79,-119,-75
,863,2018/03/15 17:54:13.40,62,-535,16420,27,74,133,130,-47,3,-50,-131
,864,2018/03/15 17:54:13.42,78,-518,16356,-34,94,121,110,-128,11,-30,-115
,865,2018/03/15 17:54:13.44,122,-584,16367,45,137,26,92,-92,-66,-91,-59
,866,2018/03/15 17:54:13.46,102,-515,16429,150,127,-17,85,23,-102,-138,-34
,867,2018/03/15 17:54:13.48,111,-499,16443,132,92,65,106,40,-41,-112,-85
,868,2018/03/15 17:54:13.50,160,-498,16443,20,58,153,105,-38,48,-39,-129
,869,2018/03/15 17:54:13.52,159,-525,16356,-21,78,118,97,-99,21,-28,-107
,870,2018/03/15 17:54:13.54,113,-527,16340,70,117,8,53,-47,-45,-93,-30
,871,2018/03/15 17:54:13.56,29,-559,16391,154,100,-27,82,54,-109,-127,-27
,872,2018/03/15 17:54:13.58,10,-573,16374,96,70,78,94,26,-16,-83,-86
,873,2018/03/15 17:54:13.60,19,-515,16406,17,68,156,101,-51,55,-42,-128
,874,2018/03/15 17:54:13.62,93,-498,16401,-23,61,76,36,-84,40,-19,-56
,875,2018/03/15 17:54:13.64,142,-554,16341,76,87,-11,53,-11,-64,-81,-21
,876,2018/03/15 17:54:13.66,121,-569,16335,167,119,-3,88,48,-91,-143,-42
,877,2018/03/15 17:54:13.68,172,-550,16440,97,41,106,61,56,45,-69,-83
,878,2018/03/15 17:54:13.70,62,-546,16470,-8,18,153,78,-26,75,-5,-115
,879,2018/03/15 17:54:13.72,25,-515,16442,5,98,102,98,-93,4,-51,-100
,880,2018/03/15 17:54:13.74,59,-540,16388,125,130,-12,69,-5,-81,-127,-28
,881,2018/03/15 17:54:13.76,102,-586,16350,152,94,11,76,58,-65,-123,-43
,882,2018/03/15 17:54:13.78,104,-587,16329,89,56,130,115,33,15,-72,-122
,883,2018/03/15 17:54:13.80,83,-505,16372,-11,96,157,133,-107,24,-42,-145
,884,2018/03/15 17:54:13.82,84,-562,16448,8,112,58,74,-104,-16,-60,-66
,885,2018/03/15 17:54:13.84,99,-533,16453,120,117,-22,66,3,-88,-118,-22
,886,2018/03/15 17:54:13.86,86,-519,16355,153,82,27,80,71,-53,-117,-53
,887,2018/03/15 17:54:13.88,168,-557,16353,59,74,144,154,-15,-10,-66,-149
,888,2018/03/15 17:54:13.90,38,-529,16412,-9,144,154,157,-153,-3,-67,-155
,889,2018/03/15 17:54:13.92,179,-553,16463,37,124,50,74,-87,-24,-80,-62
,890,2018/03/15 17:54:13.94,90,-483,16459,146,135,-14,102,11,-116,-140,-44
,891,2018/03/15 17:54:13.96,146,-505,16420,154,120,55,133,34,-78,-137,-94
,892,2018/03/15 17:54:13.98,101,-555,16367,50,90,157,133,-40,24,-70,-145
,893,2018/03/15 17:54:14.00,144,-518,16395,-29,87,129,102,-116,27,-29,-115
,894,2018/03/15 17:54:14.02,233,-530,16429,44,114,29,80,-70,-51,-79,-54
,895,2018/03/15 17:54:14.04,117,-491,16460,145,137,-17,116,8,-133,-141,-49
,896,2018/03/15 17:54:14.06,62,-567,16415,138,114,63,106,24,-43,-126,-84
,897,2018/03/15 17:54:14.08,104,-565,16382,20,49,158,105,-29,53,-34,-131
,898,2018/03/15 17:54:14.10,76,-627,16375,-10,88,123,68,-98,55,-39,-95
,899,2018/03/15 17:54:14.12,107,-559,16392,59,65,-4,19,-6,-23,-62,-7
,900,2018/03/15 17:54:14.14,102,-601,16377,144,72,-17,70,72,-87,-108,-26
,901,2018/03/15 17:54:14.16,71,-615,16402,124,103,100,149,21,-49,-113,-124
,902,2018/03/15 17:54:14.18,67,-513,16439,20,103,165,137,-83,28,-61,-151
,903,2018/03/15 17:54:14.20,101,-568,16448,-11,101,105,90,-112,15,-45,-97
,904,2018/03/15 17:54:14.22,124,-518,16453,92,135,2,97,-43,-95,-113,-49
,905,2018/03/15 17:54:14.24,112,-510,16461,162,134,-7,103,28,-110,-148,-48
,906,2018/03/15 17:54:14.26,156,-501,16432,92,83,104,114,9,-10,-87,-109
,907,2018/03/15 17:54:14.28,72,-575,16347,2,72,165,124,-70,41,-37,-144
,908,2018/03/15 17:54:14.30,-10,-548,16372,1,117,83,92,-116,-9,-59,-87
,909,2018/03/15 17:54:14.32,49,-569,16382,99,112,-17,68,-13,-85,-105,-25
,910,2018/03/15 17:54:14.34,115,-541,16341,169,122,22,118,47,-96,-145,-70
,911,2018/03/15 17:54:14.36,124,-598,16393,87,87,115,108,0,7,-87,-111
,912,2018/03/15 17:54:14.38,58,-570,16416,-20,62,156,104,-82,52,-21,-130
,913,2018/03/15 17:54:14.40,34,-582,16399,14,116,58,93,-102,-35,-65,-75
,914,2018/03/15 17:54:14.42,76,-537,16359,124,138,-25,73,-14,-98,-131,-24
,915,2018/03/15 17:54:14.44,48,-522,16361,150,82,15,60,68,-45,-116,-37
,916,2018/03/15 17:54:14.46,117,-531,16393,60,52,140,122,8,18,-56,-131
,917,2018/03/15 17:54:14.48,211,-515,16456,-18,84,154,114,-102,40,-33,-134
,918,2018/03/15 17:54:14.50,114,-498,16446,36,111,57,88,-75,-31,-73,-72
,919,2018/03/15 17:54:14.52,26,-573,16387,153,152,-7,111,1,-118,-152,-52
,920,2018/03/15 17:54:14.54,30,-564,16331,159,127,61,139,32,-78,-143,-100
,921,2018/03/15 17:54:14.56,132,-563,16385,60,96,170,143,-36,27,-78,-156
,922,2018/03/15 17:54:14.58,80,-498,16416,-2,80,152,83,-82,69,-39,-117
,923,2018/03/15 17:54:14.60,87,-533,16421,58,84,28,43,-26,-15,-71,-35
,924,2018/03/15 17:54:14.62,76,-546,16397,140,98,-31,60,42,-91,-119,-14
,925,2018/03/15 17:54:14.64,39,-565,16388,126,72,56,95,54,-39,-99,-75
,926,2018/03/15 17:54:14.66,101,-555,16420,17,54,153,92,-37,61,-35,-122
,927,2018/03/15 17:54:14.68,74,-484,16430,-18,58,118,60,-76,58,-20,-89
,928,2018/03/15 17:54:14.70,2,-586,16426,45,80,-19,27,-35,-46,-62,-4
,929,2018/03/15 17:54:14.72,73,-547,16433,125,60,-38,32,65,-70,-92,3
,930,2018/03/15 17:54:14.74,112,-542,16461,102,45,73,96,57,-23,-73,-84
,931,2018/03/15 17:54:14.76,130,-537,16427,2,47,158,80,-45,78,-24,-119
,932,2018/03/15 17:54:14.78,96,-560,16394,-19,52,94,64,-71,30,-16,-79
,933,2018/03/15 17:54:14.80,-23,-519,16376,86,121,2,88,-35,-86,-103,-45
,934,2018/03/15 17:54:14.82,4,-533,16388,160,124,0,106,36,-106,-142,-53
,935,2018/03/15 17:54:14.84,107,-579,16437,99,88,104,115,11,-11,-93,-109
,936,2018/03/15 17:54:14.86,160,-510,16449,-7,67,149,123,-74,26,-30,-136
,937,2018/03/15 17:54:14.88,103,-591,16414,-23,100,57,77,-123,-20,-38,-67
,938,2018/03/15 17:54:14.90,21,-544,16363,95,131,-14,80,-36,-94,-113,-33
,939,2018/03/15 17:54:14.92,60,-481,16423,144,76,2,64,68,-62,-110,-33
,940,2018/03/15 17:54:14.94,116,-559,16414,75,37,118,95,38,23,-56,-106
,941,2018/03/15 17:54:14.96,177,-515,16428,-12,78,161,142,-90,19,-33,-151
,942,2018/03/15 17:54:14.98,56,-545,16409,18,124,69,72,-106,-3,-71,-70
,943,2018/03/15 17:54:15.00,96,-543,16379,121,106,-18,66,15,-84,-113,-24
,944,2018/03/15 17:54:15.02,17,-531,16381,155,113,24,105,42,-81,-134,-64
,945,2018/03/15 17:54:15.04,9,-610,16376,64,49,142,88,15,54,-56,-115
,946,2018/03/15 17:54:15.06,51,-524,16458,-11,55,153,94,-66,59,-22,-123
,947,2018/03/15 17:54:15.08,171,-537,16395,30,96,48,67,-66,-19,-63,-57
,948,2018/03/15 17:54:15.10,150,-545,16380,139,124,-23,78,15,-101,-131,-27
,949,2018/03/15 17:54:15.12,60,-568,16390,145,94,46,106,51,-60,-119,-76
,950,2018/03/15 17:54:15.14,100,-525,16384,51,73,157,137,-22,20,-62,-147
,951,2018/03/15 17:54:15.16,55,-533,16469,-18,96,133,98,-114,35,-39,-115
,952,2018/03/15 17:54:15.18,186,-521,16448,46,114,30,82,-68,-52,-80,-56
,953,2018/03/15 17:54:15.20,156,-547,16497,139,132,-38,81,7,-119,-135,-21
,954,2018/03/15 17:54:15.22,94,-528,16422,116,74,46,94,42,-48,-95,-70
,955,2018/03/15 17:54:15.24,22,-579,16351,19,74,139,103,-55,36,-46,-121
,956,2018/03/15 17:54:15.26,69,-546,16390,-35,64,108,67,-99,41,-14,-87
,957,2018/03/15 17:54:15.28,96,-592,16445,59,98,5,52,-39,-47,-78,-28
,958,2018/03/15 17:54:15.30,110,-574,16434,153,128,-12,122,25,-134,-140,-55
,959,2018/03/15 17:54:15.32,136,-537,16445,124,114,85,128,10,-43,-119,-106
,960,2018/03/15 17:54:15.34,192,-554,16383,8,69,150,98,-61,52,-38,-124
,961,2018/03/15 17:54:15.36,82,-515,16438,-19,66,103,73,-85,30,-23,-88
,962,2018/03/15 17:54:15.38,74,-539,16472,103,140,24,107,-37,-83,-121,-65
,963,2018/03/15 17:54:15.40,58,-547,16485,187,139,13,101,48,-88,-163,-57
,964,2018/03/15 17:54:15.42,127,-524,16445,112,80,97,108,32,-11,-96,-102
,965,2018/03/15 17:54:15.44,108,-531,16390,-15,53,149,88,-68,61,-19,-118
,966,2018/03/15 17:54:15.46,164,-572,16380,-3,82,90,52,-85,38,-39,-71
,967,2018/03/15 17:54:15.48,131,-536,16421,105,81,-12,45,24,-57,-93,-16
,968,2018/03/15 17:54:15.50,37,-572,16402,155,98,-2,101,57,-103,-126,-49
,969,2018/03/15 17:54:15.52,116,-531,16452,75,91,114,127,-16,-13,-83,-120
,970,2018/03/15 17:54:15.54,74,-575,16395,-14,66,154,99,-80,55,-26,-126
,971,2018/03/15 17:54:15.56,87,-584,16341,6,95,61,61,-89,0,-50,-61
,972,2018/03/15 17:54:15.58,94,-562,16377,108,94,-32,51,14,-83,-101,-9
,973,2018/03/15 17:54:15.60,115,-504,16415,143,101,13,108,42,-95,-122,-60
,974,2018/03/15 17:54:15.62,120,-534,16428,52,59,125,102,-7,23,-55,-113
,975,2018/03/15 17:54:15.64,94,-540,16440,-20,82,165,132,-102,33,-31,-148
,976,2018/03/15 17:54:15.66,56,-493,16424,32,106,44,53,-74,-9,-69,-48
,977,2018/03/15 17:54:15.68,128,-551,16393,123,104,-40,75,19,-115,-113,-17
,978,2018/03/15 17:54:15.70,123,-515,16450,129,91,25,82,38,-57,-110,-53
,979,2018/03/15 17:54:15.72,125,-547,16417,42,79,144,155,-37,-11,-60,-149
,980,2018/03/15 17:54:15.74,131,-532,16442,-30,102,127,103,-132,24,-36,-115
,981,2018/03/15 17:54:15.76,-26,-520,16372,38,117,25,73,-79,-48,-77,-49
,982,2018/03/15 17:54:15.78,17,-593,16411,143,130,-29,100,13,-129,-136,-35
,983,2018/03/15 17:54:15.80,1,-540,16361,124,106,59,125,18,-66,-115,-92
,984,2018/03/15 17:54:15.82,130,-573,16408,32,87,156,131,-55,25,-59,-143
,985,2018/03/15 17:54:15.84,165,-563,16440,-30,81,108,82,-111,26,-25,-95
,986,2018/03/15 17:54:15.86,147,-536,16423,57,96,12,58,-39,-46,-76,-35
,987,2018/03/15 17:54:15.88,93,-534,16421,153,128,-27,94,25,-121,-140,-33
,988,2018/03/15 17:54:15.90,93,-529,16366,106,70,73,94,36,-21,-88,-83
,989,2018/03/15 17:54:15.92,50,-532,16423,3,48,154,96,-45,58,-25,-125
,990,2018/03/15 17:54:15.94,64,-499,16474,-16,70,105,54,-86,51,-27,-79
,991,2018/03/15 17:54:15.96,157,-549,16446,91,80,12,39,11,-27,-85,-25
,992,2018/03/15 17:54:15.98,119,-526,16424,165,81,-11,54,84,-65,-123,-21
,993,2018/03/15 17:54:16.00,129,-544,16397,88,37,84,68,51,16,-62,-76
,994,2018/03/15 17:54:16.02,26,-550,16366,-11,12,160,64,-23,96,0,-112
,995,2018/03/15 17:54:16.04,19,-567,16409,11,84,116,107,-73,9,-47,-111
,996,2018/03/15 17:54:16.06,38,-549,16452,135,151,-9,57,-16,-66,-143,-24
,997,2018/03/15 17:54:16.08,121,-522,16460,146,80,-7,65,66,-72,-113,-29
,998,2018/03/15 17:54:16.10,119,-535,16429,82,58,123,116,24,7,-70,-119
,999,2018/03/15 17:54:16.12,208,-540,16370,-10,86,159,118,-96,41,-38,-138
,1000,2018/03/15 17:54:16.14,47,-512,16403,7,91,71,57,-84,14,-49,-64
,1001,2018/03/15 17:54:16.16,114,-541,16416,128,107,-14,75,21,-89,-117,-30
,1002,2018/03/15 17:54:16.18,72,-533,16470,155,126,25,127,29,-102,-140,-76
,1003,2018/03/15 17:54:16.20,115,-552,16444,72,91,141,138,-19,3,-81,-139
,1004,2018/03/15 17:54:16.22,56,-541,16363,-12,103,161,143,-115,18,-45,-152
,1005,2018/03/15 17:54:16.24,69,-563,16336,39,149,61,101,-110,-40,-94,-81
,1006,2018/03/15 17:54:16.26,81,-583,16339,140,135,-32,85,5,-117,-137,-26
,1007,2018/03/15 17:54:16.28,68,-504,16365,138,98,34,87,40,-53,-118,-60
,1008,2018/03/15 17:54:16.30,72,-546,16391,43,33,141,76,10,65,-38,-108
,1009,2018/03/15 17:54:16.32,66,-571,16441,-27,59,130,114,-86,16,-16,-122
,1010,2018/03/15 17:54:16.34,47,-544,16427,36,135,27,69,-99,-42,-85,-48
,1011,2018/03/15 17:54:16.36,37,-531,16372,142,103,-24,80,39,-104,-122,-28
,1012,2018/03/15 17:54:16.38,27,-517,16388,133,102,50,111,31,-61,-117,-80
,1013,2018/03/15 17:54:16.40,27,-581,16414,19,61,160,131,-42,29,-40,-145
,1014,2018/03/15 17:54:16.42,91,-536,16381,-16,93,114,68,-109,46,-38,-91
,1015,2018/03/15 17:54:16.44,134,-551,16374,60,79,22,55,-19,-33,-69,-38
,1016,2018/03/15 17:54:16.46,125,-500,16406,159,125,-11,103,34,-114,-142,-46
,1017,2018/03/15 17:54:16.48,78,-552,16408,112,77,69,90,35,-21,-94,-79
,1018,2018/03/15 17:54:16.50,23,-588,16342,6,46,170,126,-40,44,-26,-148
,1019,2018/03/15 17:54:16.52,22,-508,16391,-5,107,100,82,-112,18,-51,-91
,1020,2018/03/15 17:54:16.54,47,-562,16448,76,100,-3,46,-24,-49,-88,-21
,1021,2018/03/15 17:54:16.56,114,-557,16427,156,84,-6,74,72,-80,-120,-34
,1022,2018/03/15 17:54:16.58,210,-506,16354,97,79,90,134,18,-44,-88,-112
,1023,2018/03/15 17:54:16.60,102,-581,16392,-3,92,161,130,-95,31,-44,-145
,1024,2018/03/15 17:54:16.62,45,-528,16389,-6,102,88,67,-108,21,-48,-77
,1025,2018/03/15 17:54:16.64,106,-538,16437,95,78,-28,16,17,-44,-86,6
,1026,2018/03/15 17:54:16.66,134,-561,16438,131,55,-24,55,76,-79,-93,-15
,1027,2018/03/15 17:54:16.68,86,-505,16402,63,42,102,91,21,11,-52,-96
,1028,2018/03/15 17:54:16.70,48,-514,16354,-22,61,154,114,-83,40,-19,-134
,1029,2018/03/15 17:54:16.72,93,-512,16368,10,116,79,92,-106,-13,-63,-85
,1030,2018/03/15 17:54:16.74,57,-519,16399,129,127,-15,72,2,-87,-128,-28
,1031,2018/03/15 17:54:16.76,120,-531,16423,149,104,21,140,45,-119,-126,-80
,1032,2018/03/15 17:54:16.78,98,-499,16412,79,149,142,183,-70,-41,-114,-162
,1033,2018/03/15 17:54:16.80,37,-527,16418,-12,110,157,123,-122,34,-49,-140
,1034,2018/03/15 17:54:16.82,77,-566,16406,28,122,45,78,-94,-33,-75,-61
,1035,2018/03/15 17:54:16.84,112,-533,16416,121,119,-33,84,2,-117,-120,-25
,1036,2018/03/15 17:54:16.86,168,-529,16392,144,122,42,127,22,-85,-133,-84
,1037,2018/03/15 17:54:16.88,134,-597,16449,57,93,134,123,-36,11,-75,-128
,1038,2018/03/15 17:54:16.90,111,-508,16449,-38,77,127,92,-115,35,-19,-109
,1039,2018/03/15 17:54:16.92,-20,-586,16386,36,114,34,77,-78,-43,-75,-55
,1040,2018/03/15 17:54:16.94,35,-523,16361,148,115,-22,63,33,-85,-131,-20
,1041,2018/03/15 17:54:16.96,73,-534,16409,130,60,48,72,70,-24,-95,-60
,1042,2018/03/15 17:54:16.98,125,-568,16400,16,20,132,58,-4,74,-18,-95
,1043,2018/03/15 17:54:17.00,133,-558,16452,-37,25,112,36,-62,76,6,-74
,1044,2018/03/15 17:54:17.02,30,-524,16345,50,80,3,49,-30,-46,-65,-26
,1045,2018/03/15 17:54:17.04,-17,-575,16388,139,100,-29,70,39,-99,-119,-20
,1046,2018/03/15 17:54:17.06,77,-528,16372,114,56,67,65,58,2,-85,-66
,1047,2018/03/15 17:54:17.08,39,-513,16471,5,19,157,78,-14,79,-12,-117
,1048,2018/03/15 17:54:17.10,168,-548,16453,-9,75,122,84,-84,38,-33,-103
,1049,2018/03/15 17:54:17.12,195,-534,16364,100,112,19,65,-12,-46,-106,-42
,1050,2018/03/15 17:54:17.14,115,-593,16366,176,132,-1,114,44,-115,-154,-56
,1051,2018/03/15 17:54:17.16,115,-520,16391,108,81,102,116,27,-14,-94,-109
,1052,2018/03/15 17:54:17.18,57,-519,16462,2,67,158,104,-65,54,-34,-131
,1053,2018/03/15 17:54:17.20,79,-509,16454,-9,87,93,70,-96,23,-39,-81
,1054,2018/03/15 17:54:17.22,70,-502,16383,107,106,-4,55,1,-59,-106,-25
,1055,2018/03/15 17:54:17.24,56,-559,16391,162,88,7,80,74,-73,-125,-43
,1056,2018/03/15 17:54:17.26,27,-523,16339,94,70,115,112,24,3,-82,-113
,1057,2018/03/15 17:54:17.28,189,-554,16349,-11,64,177,109,-75,68,-26,-143
,1058,2018/03/15 17:54:17.30,158,-561,16404,26,98,91,64,-72,27,-62,-77
,1059,2018/03/15 17:54:17.32,134,-496,16422,126,91,-20,38,35,-58,-108,-9
,1060,2018/03/15 17:54:17.34,125,-579,16402,149,82,3,67,67,-64,-115,-35
,1061,2018/03/15 17:54:17.36,87,-502,16397,66,48,134,117,18,17,-57,-125
,1062,2018/03/15 17:54:17.38,68,-553,16440,-16,70,142,72,-86,70,-27,-107
,1063,2018/03/15 17:54:17.40,149,-546,16381,13,66,54,54,-53,0,-39,-54
,1064,2018/03/15 17:54:17.42,195,-563,16390,143,130,-15,94,13,-109,-136,-39
,1065,2018/03/15 17:54:17.44,156,-558,16401,144,109,27,111,35,-84,-126,-69
,1066,2018/03/15 17:54:17.46,104,-525,16410,44,77,140,119,-33,21,-60,-129
,1067,2018/03/15 17:54:17.48,-36,-527,16372,-24,76,142,100,-100,42,-26,-121
,1068,2018/03/15 17:54:17.50,31,-544,16425,58,132,67,131,-74,-64,-95,-99
,1069,2018/03/15 17:54:17.52,123,-504,16405,175,198,-6,145,-23,-151,-186,-69
,1070,2018/03/15 17:54:17.54,171,-551,16433,141,118,49,94,23,-45,-129,-71
,1071,2018/03/15 17:54:17.56,169,-545,16458,21,35,150,103,-14,47,-28,-126
,1072,2018/03/15 17:54:17.58,89,-518,16382,-19,80,129,81,-99,48,-30,-105
,1073,2018/03/15 17:54:17.60,-21,-529,16427,68,109,31,74,-41,-43,-88,-52
,1074,2018/03/15 17:54:17.62,121,-472,16455,164,123,-13,82,41,-95,-143,-34
,1075,2018/03/15 17:54:17.64,54,-557,16479,129,77,76,105,52,-29,-103,-90
,1076,2018/03/15 17:54:17.66,123,-536,16415,20,89,168,142,-69,26,-54,-155
,1077,2018/03/15 17:54:17.68,111,-558,16288,-12,86,112,57,-98,55,-37,-84
,1078,2018/03/15 17:54:17.70,85,-536,16336,80,96,-4,77,-16,-81,-88,-36
,1079,2018/03/15 17:54:17.72,79,-548,16343,152,142,-8,113,10,-121,-147,-52
,1080,2018/03/15 17:54:17.74,49,-551,16464,105,84,91,97,21,-6,-94,-94
,1081,2018/03/15 17:54:17.76,122,-517,16445,-5,44,162,108,-49,54,-19,-135
,1082,2018/03/15 17:54:17.78,30,-491,16394,-6,90,103,83,-96,20,-42,-93
,1083,2018/03/15 17:54:17.80,36,-569,16372,116,134,9,97,-18,-88,-125,-53
,1084,2018/03/15 17:54:17.82,154,-579,16367,174,145,8,138,29,-130,-159,-73
,1085,2018/03/15 17:54:17.84,106,-565,16424,89,91,100,101,-2,-1,-90,-100
,1086,2018/03/15 17:54:17.86,201,-532,16420,-26,56,148,97,-82,51,-15,-122
,1087,2018/03/15 17:54:17.88,98,-551,16501,3,91,79,78,-88,1,-47,-78
,1088,2018/03/15 17:54:17.90,84,-508,16434,117,121,-19,79,-4,-98,-119,-30
,1089,2018/03/15 17:54:17.92,83,-547,16382,153,130,11,130,23,-119,-141,-70
,1090,2018/03/15 17:54:17.94,98,-559,16367,68,105,130,154,-37,-24,-86,-142
,1091,2018/03/15 17:54:17.96,133,-555,16442,-16,118,148,135,-134,13,-51,-141
,1092,2018/03/15 17:54:17.98,125,-563,16396,15,107,58,61,-92,-3,-61,-59
,1093,2018/03/15 17:54:18.00,78,-549,16464,136,99,-16,56,37,-72,-117,-20
,1094,2018/03/15 17:54:18.02,68,-546,16379,152,78,22,76,74,-54,-115,-49
,1095,2018/03/15 17:54:18.04,42,-560,16430,29,50,113,99,-21,14,-39,-106
,1096,2018/03/15 17:54:18.06,65,-532,16446,-44,60,120,70,-104,50,-8,-95
,1097,2018/03/15 17:54:18.08,50,-534,16391,19,76,22,35,-57,-13,-47,-28
,1098,2018/03/15 17:54:18.10,78,-516,16434,125,93,-32,87,32,-119,-109,-27
,1099,2018/03/15 17:54:18.12,209,-505,16463,132,105,46,106,27,-60,-118,-76
,1100,2018/03/15 17:54:18.14,169,-522,16427,28,43,135,100,-15,35,-35,-117
,1101,2018/03/15 17:54:18.16,95,-521,16321,-41,75,103,78,-116,25,-17,-90
,1102,2018/03/15 17:54:18.18,72,-548,16302,60,118,38,86,-58,-48,-89,-62
,1103,2018/03/15 17:54:18.20,-47,-509,16341,158,109,-18,78,49,-96,-133,-30
,1104,2018/03/15 17:54:18.22,31,-529,16430,120,92,64,117,28,-53,-106,-90
,1105,2018/03/15 17:54:18.24,95,-541,16461,11,66,162,117,-55,45,-38,-139
,1106,2018/03/15 17:54:18.26,101,-537,16464,-7,95,124,91,-102,33,-44,-107
,1107,2018/03/15 17:54:18.28,100,-528,16359,91,122,16,70,-31,-54,-106,-43
,1108,2018/03/15 17:54:18.30,47,-549,16351,155,104,-18,74,51,-92,-129,-28
,1109,2018/03/15 17:54:18.32,75,-537,16398,110,68,92,97,42,-5,-89,-94
,1110,2018/03/15 17:54:18.34,90,-512,16508,-2,48,154,101,-50,53,-23,-127
,1111,2018/03/15 17:54:18.36,178,-534,16507,-14,85,91,64,-99,27,-35,-77
,1112,2018/03/15 17:54:18.38,32,-561,16484,98,101,-2,72,-3,-74,-99,-35
,1113,2018/03/15 17:54:18.40,10,-529,16381,165,113,3,81,52,-78,-139,-42
,1114,2018/03/15 17:54:18.42,56,-589,16351,96,60,121,120,36,1,-78,-120
,1115,2018/03/15 17:54:18.44,122,-542,16359,3,79,172,138,-76,34,-41,-155
,1116,2018/03/15 17:54:18.46,247,-521,16384,14,146,84,115,-132,-31,-80,-99
,1117,2018/03/15 17:54:18.48,217,-532,16423,114,131,-10,96,-17,-106,-122,-43
,1118,2018/03/15 17:54:18.50,94,-505,16419,169,143,22,142,26,-120,-156,-82
,1119,2018/03/15 17:54:18.52,-22,-564,16364,76,128,128,165,-52,-37,-102,-146
,1120,2018/03/15 17:54:18.54,73,-523,16577,-17,114,161,132,-131,29,-48,-146
,1121,2018/03/15 17:54:18.56,147,-547,16478,18,106,57,66,-88,-9,-62,-61
,1122,2018/03/15 17:54:18.58,235,-536,16503,133,121,-21,91,12,-112,-127,-35
,1123,2018/03/15 17:54:18.60,93,-568,16363,138,114,15,105,24,-90,-126,-60
,1124,2018/03/15 17:54:18.62,148,-565,16333,38,64,123,107,-26,16,-51,-115
,1125,2018/03/15 17:54:18.64,34,-564,16343,-28,64,151,74,-92,77,-18,-112
,1126,2018/03/15 17:54:18.66,118,-502,16401,46,64,46,26,-18,20,-55,-36
,1127,2018/03/15 17:54:18.68,76,-558,16460,140,73,-31,38,67,-69,-106,-3
,1128,2018/03/15 17:54:18.70,6,-584,16427,130,58,42,72,72,-30,-94,-57
,1129,2018/03/15 17:54:18.72,72,-561,16389,36,39,155,82,-3,73,-37,-118
,1130,2018/03/15 17:54:18.74,28,-544,16326,-15,45,139,62,-60,77,-15,-100
,1131,2018/03/15 17:54:18.76,117,-542,16425,62,78,29,42,-16,-13,-70,-35
,1132,2018/03/15 17:54:18.78,143,-567,16463,162,98,-17,65,64,-82,-130,-24
,1133,2018/03/15 17:54:18.80,266,-490,16449,121,69,64,105,52,-41,-95,-84
,1134,2018/03/15 17:54:18.82,100,-556,16391,14,67,147,118,-53,29,-40,-132
,1135,2018/03/15 17:54:18.84,28,-541,16415,-28,87,110,64,-115,46,-29,-87
,1136,2018/03/15 17:54:18.86,27,-587,16336,66,69,-5,13,-3,-18,-67,-4
,1137,2018/03/15 17:54:18.88,164,-513,16460,149,67,-20,62,82,-82,-108,-21
,1138,2018/03/15 17:54:18.90,121,-516,16387,106,73,84,92,33,-8,-89,-88
,1139,2018/03/15 17:54:18.92,178,-520,16424,0,43,149,93,-43,56,-21,-121
,1140,2018/03/15 17:54:18.94,78,-574,16305,-15,88,102,93,-103,9,-36,-97
,1141,2018/03/15 17:54:18.96,73,-544,16354,113,125,2,53,-12,-51,-119,-27
,1142,2018/03/15 17:54:18.98,-18,-546,16338,164,97,-1,82,67,-83,-130,-40
,1143,2018/03/15 17:54:19.00,113,-514,16501,101,71,114,99,30,15,-86,-106
,1144,2018/03/15 17:54:19.02,91,-559,16440,-9,48,142,89,-57,53,-19,-115
,1145,2018/03/15 17:54:19.04,139,-551,16391,-17,85,65,77,-102,-12,-34,-71
,1146,2018/03/15 17:54:19.06,108,-537,16363,106,117,-13,62,-11,-75,-111,-24
,1147,2018/03/15 17:54:19.08,167,-575,16389,155,88,1,80,67,-79,-121,-40
,1148,2018/03/15 17:54:19.10,124,-522,16449,65,70,124,130,-5,-6,-67,-127
,1149,2018/03/15 17:54:19.12,126,-583,16469,-11,92,157,114,-103,43,-40,-135
,1150,2018/03/15 17:54:19.14,88,-501,16405,20,89,65,56,-69,9,-54,-60
,1151,2018/03/15 17:54:19.16,125,-567,16379,133,109,-10,68,24,-78,-121,-29
,1152,2018/03/15 17:54:19.18,114,-580,16335,165,96,34,100,69,-66,-130,-67
,1153,2018/03/15 17:54:19.20,125,-553,16379,60,76,151,121,-16,30,-68,-136
,1154,2018/03/15 17:54:19.22,126,-502,16435,-14,71,144,100,-85,44,-28,-122
,1155,2018/03/15 17:54:19.24,69,-483,16487,36,112,47,65,-76,-18,-74,-56
,1156,2018/03/15 17:54:19.26,113,-561,16431,146,113,-16,93,33,-109,-129,-38
,1157,2018/03/15 17:54:19.28,54,-567,16344,149,128,43,127,21,-84,-138,-85
,1158,2018/03/15 17:54:19.30,85,-550,16383,31,78,157,132,-47,25,-54,-144
,1159,2018/03/15 17:54:19.32,150,-545,16453,-6,96,140,90,-102,50,-45,-115
,1160,2018/03/15 17:54:19.34,86,-527,16437,52,114,24,86,-62,-62,-83,-55
,1161,2018/03/15 17:54:19.36,55,-542,16444,148,133,-23,81,15,-104,-140,-29
,1162,2018/03/15 17:54:19.38,56,-574,16377,113,63,54,94,50,-40,-88,-74
,1163,2018/03/15 17:54:19.40,54,-491,16400,10,60,156,111,-50,45,-35,-133
,1164,2018/03/15 17:54:19.42,64,-540,16374,-22,67,112,65,-89,47,-22,-88
,1165,2018/03/15 17:54:19.44,133,-554,16426,67,96,9,68,-29,-59,-81,-38
,1166,2018/03/15 17:54:19.46,144,-529,16443,157,122,-22,76,35,-98,-139,-27
,1167,2018/03/15 17:54:19.48,82,-553,16377,100,52,76,68,48,8,-76,-72
,1168,2018/03/15 17:54:19.50,-10,-554,16371,-8,24,142,73,-32,69,-8,-107
,1169,2018/03/15 17:54:19.52,50,-511,16339,-24,51,96,36,-75,60,-13,-66
,1170,2018/03/15 17:54:19.54,140,-547,16458,86,59,-15,2,27,-17,-72,6
,1171,2018/03/15 17:54:19.56,160,-561,16454,147,51,-12,40,96,-52,-99,-14
,1172,2018/03/15 17:54:19.58,153,-564,16392,96,46,113,106,50,7,-71,-109
,1173,2018/03/15 17:54:19.60,-14,-518,16400,11,76,181,114,-65,67,-43,-147
,1174,2018/03/15 17:54:19.62,-21,-571,16403,16,106,96,101,-90,-5,-61,-98
,1175,2018/03/15 17:54:19.64,98,-509,16350,123,135,-3,70,-12,-73,-129,-33
,1176,2018/03/15 17:54:19.66,151,-555,16427,160,97,3,99,63,-96,-128,-51
,1177,2018/03/15 17:54:19.68,108,-559,16435,70,93,123,131,-23,-8,-81,-127
,1178,2018/03/15 17:54:19.70,196,-507,16420,-8,70,164,105,-78,59,-31,-134
,1179,2018/03/15 17:54:19.72,82,-575,16364,25,111,69,74,-86,-5,-68,-71
,1180,2018/03/15 17:54:19.74,-23,-532,16386,120,101,-37,57,19,-94,-110,-10
,1181,2018/03/15 17:54:19.76,28,-573,16433,139,81,17,82,58,-65,-110,-49
,1182,2018/03/15 17:54:19.78,46,-543,16375,60,58,136,99,2,37,-59,-117
,1183,2018/03/15 17:54:19.80,94,-491,16397,-24,43,131,55,-67,76,-9,-93
,1184,2018/03/15 17:54:19.82,116,-538,16451,23,83,44,66,-60,-22,-53,-55
,1185,2018/03/15 17:54:19.84,176,-503,16432,139,100,-18,55,39,-73,-119,-18
,1186,2018/03/15 17:54:19.86,89,-572,16312,141,84,40,119,57,-79,-112,-79
,1187,2018/03/15 17:54:19.88,27,-575,16325,35,96,140,124,-61,16,-65,-132
,1188,2018/03/15 17:54:19.90,-2,-577,16345,-26,77,144,112,-103,32,-25,-128
,1189,2018/03/15 17:54:19.92,89,-551,16388,70,152,43,117,-82,-74,-111,-80
,1190,2018/03/15 17:54:19.94,80,-598,16440,156,166,-22,136,-10,-158,-161,-57
,1191,2018/03/15 17:54:19.96,119,-573,16400,128,151,70,166,-23,-96,-139,-118
,1192,2018/03/15 17:54:19.98,71,-579,16347,30,100,155,120,-70,35,-65,-137
,1193,2018/03/15 17:54:20.00,41,-545,16352,-24,64,123,50,-88,73,-20,-86
,1194,2018/03/15 17:54:20.02,-1,-539,16383,84,82,21,44,2,-23,-83,-32
,1195,2018/03/15 17:54:20.04,82,-517,16478,153,94,-23,68,59,-91,-123,-22
,1196,2018/03/15 17:54:20.06,128,-566,16482,116,69,91,108,47,-17,-92,-99
,1197,2018/03/15 17:54:20.08,102,-541,16415,19,70,169,105,-51,64,-44,-137
,1198,2018/03/15 17:54:20.10,-2,-526,16350,-11,68,98,50,-79,48,-28,-74
,1199,2018/03/15 17:54:20.12,38,-542,16327,84,76,-3,50,8,-53,-80,-23
,1200,2018/03/15 17:54:20.14,14,-553,16395,159,109,-5,94,50,-99,-134,-44
,1201,2018/03/15 17:54:20.16,147,-550,16400,94,76,107,99,18,8,-85,-103
,1202,2018/03/15 17:54:20.18,122,-543,16432,-5,35,160,64,-40,96,-15,-112
,1203,2018/03/15 17:54:20.20,107,-599,16394,-13,42,76,46,-55,30,-14,-61
,1204,2018/03/15 17:54:20.22,138,-575,16356,108,103,-10,54,5,-64,-105,-22
,1205,2018/03/15 17:54:20.24,115,-548,16352,156,76,11,79,80,-68,-116,-45
,1206,2018/03/15 17:54:20.26,182,-526,16422,90,79,132,138,11,-6,-84,-135
,1207,2018/03/15 17:54:20.28,108,-529,16435,-3,95,164,114,-98,50,-46,-139
,1208,2018/03/15 17:54:20.30,54,-545,16491,6,87,57,67,-81,-10,-46,-62
,1209,2018/03/15 17:54:20.32,97,-517,16407,116,106,-24,58,10,-82,-111,-17
,1210,2018/03/15 17:54:20.34,91,-588,16345,147,102,18,119,45,-101,-124,-68
,1211,2018/03/15 17:54:20.36,85,-577,16381,54,88,124,122,-34,2,-71,-123
,1212,2018/03/15 17:54:20.38,158,-526,16438,-32,75,138,84,-107,54,-21,-111
,1213,2018/03/15 17:54:20.40,110,-501,16408,20,73,38,44,-53,-6,-46,-41
,1214,2018/03/15 17:54:20.42,14,-532,16423,135,117,-22,101,18,-123,-126,-39
,1215,2018/03/15 17:54:20.44,9,-565,16416,146,127,44,114,19,-70,-136,-79
,1216,2018/03/15 17:54:20.46,160,-560,16341,39,63,141,113,-24,28,-51,-127
,1217,2018/03/15 17:54:20.48,155,-528,16404,-25,83,138,98,-108,40,-29,-118
,1218,2018/03/15 17:54:20.50,200,-520,16442,54,104,36,65,-50,-29,-79,-50
,1219,2018/03/15 17:54:20.52,200,-535,16386,149,131,-37,93,18,-130,-140,-28
,1220,2018/03/15 17:54:20.54,101,-542,16429,105,87,24,91,18,-67,-96,-57
,1221,2018/03/15 17:54:20.56,33,-527,16391,-7,24,130,72,-31,58,-8,-101
,1222,2018/03/15 17:54:20.58,119,-562,16407,-16,79,136,117,-95,19,-31,-126
,1223,2018/03/15 17:54:20.60,131,-586,16405,88,154,22,85,-66,-63,-121,-53
,1224,2018/03/15 17:54:20.62,117,-531,16421,158,119,-25,84,39,-109,-138,-29
,1225,2018/03/15 17:54:20.64,23,-528,16387,116,88,94,111,28,-17,-102,-102
,1226,2018/03/15 17:54:20.66,-4,-556,16377,22,42,158,68,-20,90,-32,-113
,1227,2018/03/15 17:54:20.68,18,-559,16392,-22,46,101,49,-68,52,-12,-75
,1228,2018/03/15 17:54:20.70,87,-580,16438,91,96,3,50,-5,-47,-93,-26
,1229,2018/03/15 17:54:20.72,203,-513,16433,159,98,-11,82,61,-93,-128,-35
,1230,2018/03/15 17:54:20.74,225,-524,16428,90,60,91,89,30,2,-75,-90
,1231,2018/03/15 17:54:20.76,78,-505,16357,-16,38,138,69,-54,69,-11,-103
,1232,2018/03/15 17:54:20.78,48,-566,16429,-24,47,78,35,-71,43,-11,-56
,1233,2018/03/15 17:54:20.80,52,-495,16420,105,80,-12,44,25,-56,-92,-16
,1234,2018/03/15 17:54:20.82,108,-551,16457,157,94,4,96,63,-92,-125,-50
,1235,2018/03/15 17:54:20.84,125,-552,16387,81,84,110,133,-3,-23,-82,-121
,1236,2018/03/15 17:54:20.86,73,-516,16346,-27,92,144,137,-119,7,-32,-140
,1237,2018/03/15 17:54:20.88,61,-529,16382,6,142,68,106,-136,-38,-74,-87
,1238,2018/03/15 17:54:20.90,-10,-527,16368,120,120,-24,57,0,-81,-120,-16
,1239,2018/03/15 17:54:20.92,23,-510,16454,144,93,7,102,51,-95,-118,-54
,1240,2018/03/15 17:54:20.94,77,-522,16431,51,71,127,110,-20,17,-61,-118
,1241,2018/03/15 17:54:20.96,123,-517,16435,-31,54,143,101,-85,42,-11,-122
,1242,2018/03/15 17:54:20.98,112,-568,16413,9,126,38,96,-117,-58,-67,-67
,1243,2018/03/15 17:54:21.00,69,-530,16353,128,131,-22,88,-3,-110,-129,-33
,1244,2018/03/15 17:54:21.02,119,-553,16416,141,98,28,106,43,-78,-119,-67
,1245,2018/03/15 17:54:21.04,129,-476,16452,29,81,135,139,-52,-4,-55,-137
,1246,2018/03/15 17:54:21.06,91,-542,16421,-30,85,131,89,-115,42,-27,-110
,1247,2018/03/15 17:54:21.08,133,-478,16401,36,103,29,83,-67,-54,-69,-56
,1248,2018/03/15 17:54:21.10,106,-537,16351,152,136,-14,82,16,-96,-144,-34
,1249,2018/03/15 17:54:21.12,67,-574,16384,142,70,64,61,72,3,-106,-62
,1250,2018/03/15 17:54:21.14,126,-539,16413,28,10,159,84,18,75,-19,-121
,1251,2018/03/15 17:54:21.16,44,-561,16402,-7,81,140,85,-88,55,-37,-112
,1252,2018/03/15 17:54:21.18,63,-566,16406,75,102,17,64,-27,-47,-88,-40
,1253,2018/03/15 17:54:21.20,85,-551,16443,152,136,-21,123,16,-144,-144,-51
,1254,2018/03/15 17:54:21.22,92,-563,16429,119,118,80,132,1,-52,-118,-106
,1255,2018/03/15 17:54:21.24,171,-535,16446,18,94,168,140,-76,28,-56,-154
,1256,2018/03/15 17:54:21.26,117,-478,16419,-2,108,125,108,-110,17,-53,-116
,1257,2018/03/15 17:54:21.28,74,-548,16427,97,136,6,72,-39,-66,-116,-39
,1258,2018/03/15 17:54:21.30,156,-562,16416,155,97,-21,64,58,-85,-126,-21
,1259,2018/03/15 17:54:21.32,48,-532,16412,89,56,84,86,33,-2,-72,-85
,1260,2018/03/15 17:54:21.34,104,-505,16366,-14,36,146,67,-50,79,-11,-106
,1261,2018/03/15 17:54:21.36,154,-512,16383,-6,57,90,60,-63,30,-25,-75
,1262,2018/03/15 17:54:21.38,130,-585,16396,103,110,-23,54,-7,-77,-106,-15
,1263,2018/03/15 17:54:21.40,164,-555,16358,164,115,9,127,49,-118,-139,-68
,1264,2018/03/15 17:54:21.42,69,-578,16422,89,128,122,168,-39,-46,-108,-145
,1265,2018/03/15 17:54:21.44,86,-546,16436,-6,120,168,137,-126,31,-57,-152
,1266,2018/03/15 17:54:21.46,75,-525,16334,8,98,70,64,-90,6,-53,-67
,1267,2018/03/15 17:54:21.48,36,-553,16406,121,121,-11,105,0,-116,-121,-47
,1268,2018/03/15 17:54:21.50,91,-540,16389,162,136,24,114,26,-90,-149,-69
,1269,2018/03/15 17:54:21.52,112,-518,16456,70,69,137,121,1,16,-69,-129
,1270,2018/03/15 17:54:21.54,169,-509,16407,-8,101,156,137,-109,19,-46,-146
,1271,2018/03/15 17:54:21.56,184,-566,16364,19,119,43,62,-100,-19,-69,-52
,1272,2018/03/15 17:54:21.58,73,-600,16362,137,116,-14,78,21,-92,-126,-32
,1273,2018/03/15 17:54:21.60,23,-544,16441,150,96,28,98,54,-70,-123,-63
,1274,2018/03/15 17:54:21.62,30,-522,16438,28,59,128,102,-31,26,-43,-115
,1275,2018/03/15 17:54:21.64,58,-511,16445,-25,78,146,105,-103,41,-26,-125
,1276,2018/03/15 17:54:21.66,152,-500,16389,51,101,41,48,-50,-7,-76,-44
,1277,2018/03/15 17:54:21.68,126,-549,16333,148,94,-28,59,54,-87,-121,-15
,1278,2018/03/15 17:54:21.70,141,-529,16358,123,65,42,82,58,-40,-94,-62
,1279,2018/03/15 17:54:21.72,145,-500,16494,17,38,144,78,-21,66,-27,-111
,1280,2018/03/15 17:54:21.74,124,-525,16520,-25,57,128,87,-82,41,-16,-107
,1281,2018/03/15 17:54:21.76,130,-517,16471,69,118,31,73,-49,-42,-93,-52
,1282,2018/03/15 17:54:21.78,107,-548,16399,160,99,-20,52,61,-72,-129,-16
,1283,2018/03/15 17:54:21.80,150,-535,16296,94,49,48,89,45,-41,-71,-68
,1284,2018/03/15 17:54:21.82,136,-512,16382,-1,66,152,122,-67,30,-32,-137
,1285,2018/03/15 17:54:21.84,126,-488,16483,-19,82,110,69,-101,41,-31,-89
,1286,2018/03/15 17:54:21.86,7,-550,16469,80,101,-1,50,-21,-51,-90,-24
,1287,2018/03/15 17:54:21.88,35,-536,16391,160,97,-5,75,63,-80,-128,-35
,1288,2018/03/15 17:54:21.90,-2,-550,16351,104,66,88,111,38,-23,-85,-99
,1289,2018/03/15 17:54:21.92,152,-556,16372,-7,67,160,99,-74,61,-30,-129
,1290,2018/03/15 17:54:21.94,109,-531,16410,-6,62,90,38,-68,52,-28,-64
,1291,2018/03/15 17:54:21.96,172,-523,16439,102,84,-2,57,18,-59,-93,-27
,1292,2018/03/15 17:54:21.98,146,-497,16438,170,118,10,103,52,-93,-144,-56
,1293,2018/03/15 17:54:22.00,130,-571,16414,89,68,114,110,21,4,-78,-112
,1294,2018/03/15 17:54:22.02,117,-524,16356,-8,73,164,117,-81,47,-32,-140
,1295,2018/03/15 17:54:22.04,127,-569,16356,13,115,78,93,-102,-15,-64,-85
,1296,2018/03/15 17:54:22.06,102,-509,16476,120,126,-14,73,-6,-87,-123,-29
,1297,2018/03/15 17:54:22.08,93,-536,16449,164,111,27,108,53,-81,-137,-67
,1298,2018/03/15 17:54:22.10,66,-554,16366,76,95,133,159,-19,-26,-85,-146
,1299,2018/03/15 17:54:22.12,-20,-563,16397,-13,126,154,158,-139,-4,-56,-156
,1300,2018/03/15 17:54:22.14,93,-517,16407,10,130,38,74,-120,-36,-70,-56
,1301,2018/03/15 17:54:22.16,112,-557,16465,120,118,-30,79,2,-109,-119,-24
,1302,2018/03/15 17:54:22.18,228,-520,16456,150,111,27,92,39,-65,-130,-59
,1303,2018/03/15 17:54:22.20,174,-506,16374,46,34,128,56,12,72,-40,-92
,1304,2018/03/15 17:54:22.22,8,-566,16387,-23,34,140,67,-57,73,-5,-103
,1305,2018/03/15 17:54:22.24,24,-510,16403,39,85,27,23,-46,4,-62,-25
,1306,2018/03/15 17:54:22.26,134,-504,16386,137,66,-29,43,71,-72,-101,-7
,1307,2018/03/15 17:54:22.28,105,-559,16408,136,59,52,67,77,-15,-97,-59
,1308,2018/03/15 17:54:22.30,88,-520,16481,24,22,145,70,2,75,-23,-107
,1309,2018/03/15 17:54:22.32,57,-530,16397,-24,62,121,86,-86,35,-19,-103
,1310,2018/03/15 17:54:22.34,-5,-534,16358,47,109,5,62,-62,-57,-78,-33
,1311,2018/03/15 17:54:22.36,121,-527,16368,140,109,-28,71,31,-99,-124,-21
,1312,2018/03/15 17:54:22.38,98,-495,16448,113,79,65,116,34,-51,-96,-90
,1313,2018/03/15 17:54:22.40,192,-572,16408,16,60,163,110,-44,53,-38,-136
,1314,2018/03/15 17:54:22.42,95,-519,16426,-13,97,112,92,-110,20,-42,-102
,1315,2018/03/15 17:54:22.44,107,-503,16371,72,105,-6,54,-33,-60,-88,-24
,1316,2018/03/15 17:54:22.46,10,-589,16390,144,112,-23,101,32,-124,-128,-39
,1317,2018/03/15 17:54:22.48,91,-564,16387,101,101,93,128,0,-35,-101,-110
,1318,2018/03/15 17:54:22.50,157,-506,16434,4,71,166,110,-67,56,-37,-138
,1319,2018/03/15 17:54:22.52,123,-558,16430,0,92,104,63,-92,41,-46,-83
,1320,2018/03/15 17:54:22.54,34,-513,16387,102,82,-8,43,20,-51,-92,-17
,1321,2018/03/15 17:54:22.56,30,-546,16328,153,95,-1,82,58,-83,-124,-40
,1322,2018/03/15 17:54:22.58,51,-530,16365,96,77,127,142,19,-15,-86,-134
,1323,2018/03/15 17:54:22.60,103,-543,16376,2,96,176,132,-94,44,-49,-154
,1324,2018/03/15 17:54:22.62,76,-472,16409,10,117,92,105,-107,-13,-63,-98
,1325,2018/03/15 17:54:22.64,110,-525,16463,129,134,-17,68,-5,-85,-131,-25
,1326,2018/03/15 17:54:22.66,28,-552,16377,148,98,1,89,50,-88,-123,-45
,1327,2018/03/15 17:54:22.68,-13,-535,16401,56,62,122,122,-6,0,-59,-122
,1328,2018/03/15 17:54:22.70,13,-520,16396,-13,91,165,125,-104,40,-39,-145
,1329,2018/03/15 17:54:22.72,139,-527,16481,28,109,61,61,-81,0,-68,-61
,1330,2018/03/15 17:54:22.74,130,-500,16453,137,98,-16,62,39,-78,-117,-23
,1331,2018/03/15 17:54:22.76,153,-518,16422,149,93,20,92,56,-72,-121,-56
,1332,2018/03/15 17:54:22.78,48,-612,16379,36,48,129,104,-12,25,-42,-116
,1333,2018/03/15 17:54:22.80,28,-553,16359,-33,57,130,76,-90,54,-12,-103
,1334,2018/03/15 17:54:22.82,36,-556,16402,28,97,34,67,-69,-33,-62,-50
,1335,2018/03/15 17:54:22.84,64,-544,16425,141,107,-25,54,34,-79,-124,-14
,1336,2018/03/15 17:54:22.86,208,-562,16409,135,56,48,70,79,-22,-95,-59
,1337,2018/03/15 17:54:22.88,125,-538,16365,32,47,149,101,-15,48,-39,-125
,1338,2018/03/15 17:54:22.90,138,-609,16395,-33,52,116,72,-85,44,-9,-94
,1339,2018/03/15 17:54:22.92,0,-540,16410,52,96,25,57,-44,-32,-74,-41
,1340,2018/03/15 17:54:22.94,161,-567,16463,164,110,-13,70,54,-83,-137,-28
,1341,2018/03/15 17:54:22.96,117,-495,16430,131,80,68,104,51,-36,-105,-86
,1342,2018/03/15 17:54:22.98,153,-529,16422,4,41,148,94,-37,54,-22,-121
,1343,2018/03/15 17:54:23.00,101,-559,16377,-4,98,124,110,-102,14,-47,-117
,1344,2018/03/15 17:54:23.02,124,-589,16338,93,144,8,76,-51,-68,-118,-42
,1345,2018/03/15 17:54:23.04,45,-566,16412,159,115,-21,88,44,-109,-137,-33
,1346,2018/03/15 17:54:23.06,99,-525,16463,103,81,90,104,22,-14,-92,-97
,1347,2018/03/15 17:54:23.08,49,-517,16451,3,62,157,111,-59,46,-32,-134
,1348,2018/03/15 17:54:23.10,130,-520,16362,-8,99,100,91,-107,9,-45,-95
,1349,2018/03/15 17:54:23.12,113,-521,16378,102,144,1,107,-42,-106,-123,-54
,1350,2018/03/15 17:54:23.14,155,-563,16346,168,143,4,106,25,-102,-155,-55
,1351,2018/03/15 17:54:23.16,123,-533,16337,97,76,107,112,21,-5,-86,-109
,1352,2018/03/15 17:54:23.18,32,-527,16353,-18,54,147,89,-72,58,-18,-118
,1353,2018/03/15 17:54:23.20,145,-524,16393,-6,86,78,86,-92,-8,-40,-82
,1354,2018/03/15 17:54:23.22,151,-506,16399,122,152,-8,94,-30,-102,-137,-43
,1355,2018/03/15 17:54:23.24,87,-575,16446,160,96,10,59,64,-49,-128,-34
,1356,2018/03/15 17:54:23.26,79,-552,16438,65,20,120,84,45,36,-42,-102
,1357,2018/03/15 17:54:23.28,-12,-554,16408,-20,56,151,88,-76,63,-18,-119
,1358,2018/03/15 17:54:23.30,59,-566,16317,22,74,66,41,-52,25,-48,-53
,1359,2018/03/15 17:54:23.32,56,-542,16378,128,88,-29,58,40,-87,-108,-14
,1360,2018/03/15 17:54:23.34,194,-506,16465,144,109,30,127,35,-97,-126,-78
,1361,2018/03/15 17:54:23.36,77,-514,16442,59,83,149,110,-24,39,-71,-129
,1362,2018/03/15 17:54:23.38,56,-515,16415,-18,42,139,62,-60,77,-12,-100
,1363,2018/03/15 17:54:23.40,55,-512,16393,35,92,56,67,-57,-11,-63,-61
,1364,2018/03/15 17:54:23.42,53,-539,16392,146,108,-23,68,38,-91,-127,-22
,1365,2018/03/15 17:54:23.44,152,-507,16439,121,66,40,90,55,-50,-93,-65
,1366,2018/03/15 17:54:23.46,156,-544,16392,35,64,158,140,-29,18,-49,-149
,1367,2018/03/15 17:54:23.48,142,-532,16412,-6,109,147,106,-115,41,-51,-126
,1368,2018/03/15 17:54:23.50,56,-561,16403,55,100,19,54,-45,-35,-77,-36
,1369,2018/03/15 17:54:23.52,4,-593,16411,143,117,-26,116,26,-142,-130,-45
,1370,2018/03/15 17:54:23.54,36,-519,16416,124,120,70,126,4,-56,-122,-98
,1371,2018/03/15 17:54:23.56,62,-528,16388,21,86,150,132,-65,18,-53,-141
,1372,2018/03/15 17:54:23.58,172,-556,16422,-31,91,106,88,-122,18,-30,-97
,1373,2018/03/15 17:54:23.60,151,-525,16389,66,110,-6,52,-44,-58,-88,-23
,1374,2018/03/15 17:54:23.62,44,-552,16388,146,114,-20,94,32,-114,-130,-37
,1375,2018/03/15 17:54:23.64,113,-521,16425,112,93,104,136,19,-32,-102,-120
,1376,2018/03/15 17:54:23.66,71,-532,16406,16,88,167,134,-72,33,-52,-150
,1377,2018/03/15 17:54:23.68,158,-550,16412,-2,124,109,133,-126,-24,-61,-121
,1378,2018/03/15 17:54:23.70,91,-527,16361,100,168,-6,96,-68,-102,-134,-45
,1379,2018/03/15 17:54:23.72,141,-465,16406,159,121,-4,114,38,-118,-140,-55
,1380,2018/03/15 17:54:23.74,96,-527,16418,89,106,89,128,-17,-39,-97,-108
,1381,2018/03/15 17:54:23.76,100,-522,16355,-34,60,135,97,-94,38,-13,-116
,1382,2018/03/15 17:54:23.78,43,-575,16457,-18,78,60,59,-96,1,-30,-59
,1383,2018/03/15 17:54:23.80,37,-498,16418,92,117,-32,75,-25,-107,-104,-21
,1384,2018/03/15 17:54:23.82,6,-458,16382,151,119,-8,98,32,-106,-135,-45
,1385,2018/03/15 17:54:23.84,54,-530,16385,53,50,97,71,3,26,-51,-84
,1386,2018/03/15 17:54:23.86,116,-533,16360,-21,52,154,90,-73,64,-15,-122
,1387,2018/03/15 17:54:23.88,159,-512,16386,12,85,45,44,-73,1,-48,-44
,1388,2018/03/15 17:54:23.90,87,-553,16404,116,91,-30,55,25,-85,-103,-12
,1389,2018/03/15 17:54:23.92,15,-544,16463,141,77,18,73,64,-55,-109,-45
,1390,2018/03/15 17:54:23.94,47,-541,16479,52,54,137,121,-2,16,-53,-129
,1391,2018/03/15 17:54:23.96,141,-519,16462,-26,84,136,96,-110,40,-29,-116
,1392,2018/03/15 17:54:23.98,168,-514,16382,35,114,58,104,-79,-46,-74,-81
,1393,2018/03/15 17:54:24.00,105,-564,16364,162,170,-9,129,-8,-138,-166,-60
,1394,2018/03/15 17:54:24.02,151,-559,16322,149,133,49,131,16,-82,-141,-90
,1395,2018/03/15 17:54:24.04,86,-503,16406,39,88,155,131,-49,24,-63,-143
,1396,2018/03/15 17:54:24.06,-40,-512,16406,-12,89,144,106,-101,38,-38,-125
,1397,2018/03/15 17:54:24.08,72,-514,16415,60,138,25,98,-78,-73,-99,-61
,1398,2018/03/15 17:54:24.10,19,-525,16390,154,141,-12,113,13,-125,-147,-50
,1399,2018/03/15 17:54:24.12,141,-499,16417,142,132,80,163,10,-83,-137,-121
,1400,2018/03/15 17:54:24.14,132,-582,16365,27,124,168,169,-97,-1,-75,-168
,1401,2018/03/15 17:54:24.16,183,-504,16413,-8,123,119,101,-131,18,-57,-110
,1402,2018/03/15 17:54:24.18,93,-544,16417,67,118,8,77,-51,-69,-92,-42
,1403,2018/03/15 17:54:24.20,108,-463,16448,164,128,-10,89,36,-99,-146,-39
,1404,2018/03/15 17:54:24.22,145,-537,16453,113,75,90,115,38,-25,-94,-102
,1405,2018/03/15 17:54:24.24,48,-515,16446,-4,57,157,99,-61,58,-26,-128
,1406,2018/03/15 17:54:24.26,82,-516,16357,-19,71,100,88,-90,12,-26,-94
,1407,2018/03/15 17:54:24.28,112,-581,16397,96,124,-3,76,-28,-79,-110,-36
,1408,2018/03/15 17:54:24.30,93,-543,16377,163,133,-9,122,30,-131,-148,-56
,1409,2018/03/15 17:54:24.32,83,-507,16392,84,104,88,122,-20,-34,-94,-105
,1410,2018/03/15 17:54:24.34,-42,-519,16402,-21,49,158,74,-70,84,-14,-116
,1411,2018/03/15 17:54:24.36,59,-523,16436,-1,61,72,54,-62,18,-30,-63
,1412,2018/03/15 17:54:24.38,102,-532,16336,90,118,-34,80,-28,-114,-104,-23
,1413,2018/03/15 17:54:24.40,42,-469,16372,143,103,-7,87,40,-94,-123,-40
,1414,2018/03/15 17:54:24.42,139,-543,16441,66,90,125,168,-24,-43,-78,-146
,1415,2018/03/15 17:54:24.44,157,-535,16442,-16,98,148,90,-114,58,-41,-119
,1416,2018/03/15 17:54:24.46,103,-527,16381,3,69,61,41,-66,20,-36,-51
,1417,2018/03/15 17:54:24.48,74,-535,16387,130,83,-22,27,47,-49,-106,-2
,1418,2018/03/15 17:54:24.50,22,-574,16415,143,49,22,70,94,-48,-96,-46
,1419,2018/03/15 17:54:24.52,47,-510,16379,59,57,139,105,2,34,-58,-122
,1420,2018/03/15 17:54:24.54,105,-545,16403,-17,56,149,73,-73,76,-19,-111
,1421,2018/03/15 17:54:24.56,128,-519,16403,34,76,48,28,-42,20,-55,-38
,1422,2018/03/15 17:54:24.58,55,-563,16360,139,59,-24,22,80,-46,-99,1
,1423,2018/03/15 17:54:24.60,71,-543,16339,142,64,42,108,78,-66,-103,-75
,1424,2018/03/15 17:54:24.62,-38,-508,16389,36,84,147,122,-48,25,-60,-134
,1425,2018/03/15 17:54:24.64,20,-557,16472,-9,81,140,74,-90,66,-36,-107
,1426,2018/03/15 17:54:24.66,7,-534,16436,60,85,28,32,-25,-4,-72,-30
,1427,2018/03/15 17:54:24.68,154,-506,16408,153,97,-25,76,56,-101,-125,-25
,1428,2018/03/15 17:54:24.70,84,-549,16353,119,82,62,107,37,-45,-100,-84
,1429,2018/03/15 17:54:24.72,82,-511,16383,24,59,149,103,-35,46,-41,-126
,1430,2018/03/15 17:54:24.74,-31,-542,16426,-20,93,117,93,-113,24,-36,-105
,1431,2018/03/15 17:54:24.76,153,-560,16462,71,119,14,75,-48,-61,-95,-44
,1432,2018/03/15 17:54:24.78,105,-514,16441,174,137,-2,118,37,-120,-155,-58
,1433,2018/03/15 17:54:24.80,74,-528,16415,120,98,89,114,22,-25,-109,-101
,1434,2018/03/15 17:54:24.82,139,-597,16336,17,72,175,120,-55,55,-44,-147
,1435,2018/03/15 17:54:24.84,53,-568,16365,3,98,120,94,-95,26,-50,-107
,1436,2018/03/15 17:54:24.86,-18,-556,16406,104,140,1,95,-36,-94,-122,-48
,1437,2018/03/15 17:54:24.88,80,-592,16378,154,115,-12,78,39,-90,-134,-33
,1438,2018/03/15 17:54:24.90,93,-562,16423,91,46,100,76,45,24,-68,-88
,1439,2018/03/15 17:54:24.92,81,-520,16437,-12,35,155,94,-47,61,-11,-124
,1440,2018/03/15 17:54:24.94,152,-511,16459,-2,85,86,59,-87,27,-41,-72
,1441,2018/03/15 17:54:24.96,11,-520,16466,110,92,-18,39,18,-57,-101,-10
,1442,2018/03/15 17:54:24.98,99,-503,16412,151,73,3,67,78,-64,-112,-35
,1443,2018/03/15 17:54:25.00,90,-573,16380,75,65,124,130,10,-6,-70,-127
,1444,2018/03/15 17:54:25.02,185,-565,16387,-17,65,151,78,-82,73,-24,-114
,1445,2018/03/15 17:54:25.04,187,-547,16354,13,76,82,76,-63,6,-44,-79
,1446,2018/03/15 17:54:25.06,96,-522,16366,142,135,-1,96,7,-97,-138,-47
,1447,2018/03/15 17:54:25.08,104,-553,16342,162,103,31,92,59,-61,-132,-61
,1448,2018/03/15 17:54:25.10,21,-566,16404,64,58,134,110,6,24,-61,-122
,1449,2018/03/15 17:54:25.12,77,-528,16464,-13,78,164,89,-91,75,-32,-126
,1450,2018/03/15 17:54:25.14,59,-557,16430,39,69,57,37,-30,20,-54,-47
,1451,2018/03/15 17:54:25.16,73,-510,16454,145,92,-24,48,53,-72,-118,-12
,1452,2018/03/15 17:54:25.18,261,-582,16381,134,68,32,96,66,-64,-101,-64
,1453,2018/03/15 17:54:25.20,120,-511,16385,35,74,148,131,-39,17,-54,-139
,1454,2018/03/15 17:54:25.22,47,-526,16458,-22,97,136,117,-119,19,-37,-126
,1455,2018/03/15 17:54:25.24,8,-538,16470,52,128,34,70,-76,-36,-90,-52
,1456,2018/03/15 17:54:25.26,46,-522,16420,163,112,-15,72,51,-87,-137,-28
,1457,2018/03/15 17:54:25.28,64,-528,16361,128,74,68,104,54,-36,-101,-86
,1458,2018/03/15 17:54:25.30,39,-541,16331,37,72,168,124,-35,44,-54,-146
,1459,2018/03/15 17:54:25.32,81,-534,16364,-14,80,120,64,-94,56,-33,-92
,1460,2018/03/15 17:54:25.34,109,-530,16403,63,78,5,55,-15,-50,-70,-30
,1461,2018/03/15 17:54:25.36,55,-582,16432,144,114,-27,78,30,-105,-129,-25
,1462,2018/03/15 17:54:25.38,25,-483,16422,114,80,88,124,34,-36,-97,-106
,1463,2018/03/15 17:54:25.40,78,-546,16384,14,76,164,117,-62,47,-45,-140
,1464,2018/03/15 17:54:25.42,80,-537,16366,-9,115,106,122,-124,-16,-53,-114
,1465,2018/03/15 17:54:25.44,149,-540,16382,89,154,-4,94,-65,-98,-121,-45
,1466,2018/03/15 17:54:25.46,180,-579,16384,170,120,0,78,50,-78,-145,-39
,1467,2018/03/15 17:54:25.48,105,-540,16488,106,66,105,98,40,7,-86,-101
,1468,2018/03/15 17:54:25.50,157,-559,16416,-5,55,159,84,-60,75,-25,-121
,1469,2018/03/15 17:54:25.52,27,-537,16428,1,73,93,64,-72,29,-37,-78
,1470,2018/03/15 17:54:25.54,83,-524,16425,126,121,1,72,5,-71,-123,-36
,1471,2018/03/15 17:54:25.56,63,-550,16355,186,134,27,118,52,-91,-160,-72
,1472,2018/03/15 17:54:25.58,102,-560,16392,96,94,126,135,2,-9,-95,-130
,1473,2018/03/15 17:54:25.60,133,-552,16396,-16,70,156,97,-86,59,-27,-126
,1474,2018/03/15 17:54:25.62,202,-553,16341,13,94,70,62,-81,8,-53,-66
,1475,2018/03/15 17:54:25.64,38,-504,16423,128,104,-17,74,24,-91,-116,-28
,1476,2018/03/15 17:54:25.66,9,-537,16460,157,122,26,135,35,-109,-139,-80
,1477,2018/03/15 17:54:25.68,120,-492,16469,58,96,134,123,-38,11,-77,-128
,1478,2018/03/15 17:54:25.70,74,-535,16399,-14,82,163,128,-96,35,-34,-145
,1479,2018/03/15 17:54:25.72,77,-541,16346,39,120,50,67,-81,-17,-79,-58
,1480,2018/03/15 17:54:25.74,169,-550,16435,134,106,-30,77,28,-107,-120,-23
,1481,2018/03/15 17:54:25.76,163,-570,16365,137,105,42,110,32,-68,-121,-76
,1482,2018/03/15 17:54:25.78,135,-546,16423,42,62,140,99,-20,41,-52,-119
,1483,2018/03/15 17:54:25.80,-51,-518,16354,-33,56,129,79,-89,50,-11,-104
,1484,2018/03/15 17:54:25.82,-5,-563,16331,51,108,34,56,-57,-22,-79,-45
,1485,2018/03/15 17:54:25.84,-77,-527,16426,144,93,-37,50,51,-87,-118,-6
,1486,2018/03/15 17:54:25.86,141,-516,16427,115,61,57,98,54,-41,-88,-77
,1487,2018/03/15 17:54:25.88,185,-525,16436,14,53,150,104,-39,46,-33,-127
,1488,2018/03/15 17:54:25.90,81,-534,16418,-20,69,116,79,-89,37,-24,-97
,1489,2018/03/15 17:54:25.92,66,-517,16368,60,112,-2,71,-52,-73,-86,-34
,1490,2018/03/15 17:54:25.94,36,-580,16387,150,135,-23,98,15,-121,-142,-37
,1491,2018/03/15 17:54:25.96,78,-522,16424,114,72,85,88,42,-3,-93,-86
,1492,2018/03/15 17:54:25.98,49,-527,16488,18,48,168,103,-30,65,-33,-135
,1493,2018/03/15 17:54:26.00,63,-581,16443,-10,82,108,90,-92,18,-36,-99
,1494,2018/03/15 17:54:26.02,156,-546,16374,90,136,5,99,-46,-94,-113,-52
,1495,2018/03/15 17:54:26.04,33,-531,16333,165,125,-7,82,40,-89,-145,-37
,1496,2018/03/15 17:54:26.06,77,-517,16314,101,85,114,134,16,-20,-93,-124
,1497,2018/03/15 17:54:26.08,89,-523,16386,8,66,162,81,-58,81,-37,-121
,1498,2018/03/15 17:54:26.10,93,-542,16439,-12,56,80,54,-68,26,-22,-67
,1499,2018/03/15 17:54:26.12,104,-502,16474,106,112,-12,53,-6,-65,-109,-20
,1500,2018/03/15 17:54:26.14,89,-556,16408,162,88,17,93,74,-76,-125,-55
,1501,2018/03/15 17:54:26.16,54,-578,16350,90,68,122,98,22,24,-79,-110
,1502,2018/03/15 17:54:26.18,145,-564,16379,-15,56,161,110,-71,51,-20,-135
,1503,2018/03/15 17:54:26.20,115,-533,16441,18,113,68,69,-95,-1,-65,-68
,1504,2018/03/15 17:54:26.22,103,-492,16468,131,136,-12,98,-5,-110,-133,-43
,1505,2018/03/15 17:54:26.24,33,-580,16459,154,107,13,93,47,-80,-130,-53
,1506,2018/03/15 17:54:26.26,81,-517,16370,54,59,133,108,-5,25,-56,-120
,1507,2018/03/15 17:54:26.28,45,-558,16338,-17,82,134,99,-99,35,-32,-116
,1508,2018/03/15 17:54:26.30,79,-586,16350,8,91,27,23,-83,4,-49,-25
,1509,2018/03/15 17:54:26.32,128,-510,16470,127,69,-28,38,58,-66,-98,-5
,1510,2018/03/15 17:54:26.34,94,-546,16431,135,84,37,125,51,-88,-109,-81
,1511,2018/03/15 17:54:26.36,77,-520,16435,40,102,146,138,-62,8,-71,-142
,1512,2018/03/15 17:54:26.38,61,-493,16410,-27,75,130,91,-102,39,-24,-110
,1513,2018/03/15 17:54:26.40,111,-581,16380,44,122,24,79,-78,-55,-83,-51
,1514,2018/03/15 17:54:26.42,79,-536,16409,145,122,-25,82,23,-107,-133,-28
,1515,2018/03/15 17:54:26.44,196,-513,16435,134,86,68,106,48,-38,-110,-87
,1516,2018/03/15 17:54:26.46,106,-525,16463,29,53,156,89,-24,67,-41,-122
,1517,2018/03/15 17:54:26.48,53,-532,16464,-23,55,120,73,-78,47,-16,-96
,1518,2018/03/15 17:54:26.50,49,-560,16376,79,110,38,86,-31,-48,-94,-62
,1519,2018/03/15 17:54:26.52,110,-572,16377,185,148,1,108,37,-107,-166,-54
,1520,2018/03/15 17:54:26.54,-12,-561,16404,126,78,90,93,48,-3,-102,-91
,1521,2018/03/15 17:54:26.56,73,-546,16364,25,49,185,123,-24,62,-37,-154
,1522,2018/03/15 17:54:26.58,91,-544,16372,6,108,116,86,-102,30,-57,-101
,1523,2018/03/15 17:54:26.60,95,-532,16450,92,122,3,92,-30,-89,-107,-47
,1524,2018/03/15 17:54:26.62,102,-549,16418,167,150,-3,124,17,-127,-158,-60
,1525,2018/03/15 17:54:26.64,23,-521,16385,103,105,117,149,-2,-32,-104,-133
,1526,2018/03/15 17:54:26.66,61,-538,16393,9,96,163,145,-87,18,-52,-154
,1527,2018/03/15 17:54:26.68,-36,-529,16425,-10,119,85,77,-129,8,-54,-81
,1528,2018/03/15 17:54:26.70,65,-507,16441,106,86,-7,24,20,-31,-96,-8
,1529,2018/03/15 17:54:26.72,109,-543,16450,163,51,5,62,112,-57,-107,-33
,1530,2018/03/15 17:54:26.74,97,-509,16427,73,50,106,83,23,23,-61,-94
,1531,2018/03/15 17:54:26.76,55,-559,16416,-15,54,163,107,-69,56,-19,-135
,1532,2018/03/15 17:54:26.78,27,-546,16383,10,91,77,79,-81,-2,-50,-78
,1533,2018/03/15 17:54:26.80,54,-585,16397,125,134,-22,75,-9,-97,-129,-26
,1534,2018/03/15 17:54:26.82,75,-563,16389,160,87,28,79,73,-51,-123,-53
,1535,2018/03/15 17:54:26.84,98,-530,16415,59,51,138,120,8,18,-55,-129
,1536,2018/03/15 17:54:26.86,96,-512,16454,-11,83,155,90,-94,65,-36,-122
,1537,2018/03/15 17:54:26.88,117,-547,16397,30,92,42,52,-62,-10,-61,-47
,1538,2018/03/15 17:54:26.90,69,-556,16398,130,100,-26,58,30,-84,-115,-16
,1539,2018/03/15 17:54:26.92,77,-552,16427,145,81,39,86,64,-47,-113,-62
,1540,2018/03/15 17:54:26.94,67,-513,16483,36,25,145,61,11,84,-30,-103
,1541,2018/03/15 17:54:26.96,183,-537,16467,-22,37,137,69,-59,68,-7,-103
,1542,2018/03/15 17:54:26.98,73,-551,16383,54,100,42,72,-46,-30,-77,-57
,1543,2018/03/15 17:54:27.00,1,-595,16348,167,127,-10,99,40,-109,-147,-44
,1544,2018/03/15 17:54:27.02,67,-543,16375,138,111,60,128,27,-68,-124,-94
,1545,2018/03/15 17:54:27.04,27,-494,16423,16,69,144,101,-53,43,-42,-122
,1546,2018/03/15 17:54:27.06,12,-506,16428,-28,70,115,61,-98,54,-21,-88
,1547,2018/03/15 17:54:27.08,113,-518,16428,56,60,1,34,-4,-33,-58,-17
,1548,2018/03/15 17:54:27.10,66,-559,16375,152,115,-26,84,37,-110,-133,-29
,1549,2018/03/15 17:54:27.12,134,-554,16368,108,86,77,122,22,-45,-97,-99
,1550,2018/03/15 17:54:27.14,113,-556,16414,3,81,162,131,-78,31,-42,-146
,1551,2018/03/15 17:54:27.16,111,-539,16439,0,120,120,107,-120,13,-60,-113
,1552,2018/03/15 17:54:27.18,146,-512,16465,99,134,4,84,-35,-80,-116,-44
,1553,2018/03/15 17:54:27.20,106,-519,16441,168,118,-2,82,50,-84,-143,-40
,1554,2018/03/15 17:54:27.22,129,-602,16394,94,62,90,95,32,-5,-78,-92
,1555,2018/03/15 17:54:27.24,64,-563,16360,-17,35,143,87,-52,56,-9,-115
,1556,2018/03/15 17:54:27.26,9,-566,16384,-18,93,74,58,-111,16,-37,-66
,1557,2018/03/15 17:54:27.28,9,-534,16407,96,80,-24,43,16,-67,-88,-9
,1558,2018/03/15 17:54:27.30,46,-522,16458,146,93,-4,88,53,-92,-119,-42
,1559,2018/03/15 17:54:27.32,61,-535,16404,71,68,112,107,3,5,-69,-109
,1560,2018/03/15 17:54:27.34,74,-498,16373,-20,58,144,83,-78,61,-19,-113
,1561,2018/03/15 17:54:27.36,127,-543,16428,-8,62,45,34,-70,11,-27,-39
,1562,2018/03/15 17:54:27.38,104,-509,16390,110,79,-21,39,31,-60,-94,-9
,1563,2018/03/15 17:54:27.40,114,-519,16428,157,84,19,90,73,-71,-120,-54
,1564,2018/03/15 17:54:27.42,91,-562,16376,53,49,128,101,4,27,-51,-114
,1565,2018/03/15 17:54:27.44,136,-530,16451,-20,75,153,108,-95,45,-27,-130
,1566,2018/03/15 17:54:27.46,115,-533,16419,29,126,45,110,-97,-65,-77,-77
,1567,2018/03/15 17:54:27.48,162,-592,16367,139,172,-20,124,-33,-144,-155,-52
,1568,2018/03/15 17:54:27.50,118,-572,16393,146,143,44,159,3,-115,-144,-101
,1569,2018/03/15 17:54:27.52,61,-515,16415,40,104,153,130,-64,23,-72,-141
,1570,2018/03/15 17:54:27.54,105,-558,16435,-11,77,143,101,-88,42,-33,-122
,1571,2018/03/15 17:54:27.56,8,-495,16428,56,128,37,88,-72,-51,-92,-62
,1572,2018/03/15 17:54:27.58,46,-536,16318,166,156,-8,114,10,-122,-161,-53
,1573,2018/03/15 17:54:27.60,31,-577,16359,144,113,62,104,31,-42,-128,-83
,1574,2018/03/15 17:54:27.62,91,-532,16354,12,42,144,95,-30,49,-27,-119
,1575,2018/03/15 17:54:27.64,158,-529,16457,-21,62,130,61,-83,69,-20,-95
,1576,2018/03/15 17:54:27.66,45,-536,16488,80,104,24,80,-24,-56,-92,-52
,1577,2018/03/15 17:54:27.68,103,-554,16422,166,126,-16,92,40,-108,-146,-38
,1578,2018/03/15 17:54:27.70,75,-543,16442,108,94,72,133,14,-61,-101,-102
,1579,2018/03/15 17:54:27.72,113,-529,16383,-2,88,152,127,-90,25,-43,-139
,1580,2018/03/15 17:54:27.74,172,-536,16430,-12,93,114,78,-105,36,-40,-96
