// Data mode  : Standard
// Transmission speed  : 50Hz
// Accelerometer sensor's range  : 2g
// Gyroscope sensor's range  : 250dps
//
//ARTIFACT,NUM,DATE,ACC_X,ACC_Y,ACC_Z,EOG_L1,EOG_R1,EOG_L2,EOG_R2,EOG_H1,EOG_H2,EOG_V1,EOG_V2
,1,2018/03/15 01:40:48.67,-1171,10281,-12798,-104,8,-85,30,-112,-115,48,27
,2,2018/03/15 01:40:48.69,-1067,10231,-12511,-66,51,-30,86,-117,-116,7,-28
,3,2018/03/15 01:40:48.71,-1167,10176,-12643,-31,90,-37,87,-121,-124,-29,-25
,4,2018/03/15 01:40:48.73,-1189,10319,-12482,-44,76,-45,78,-120,-123,-16,-16
,5,2018/03/15 01:40:48.75,-1211,10445,-12525,-50,74,-47,83,-124,-130,-12,-18
,6,2018/03/15 01:40:48.77,-1147,10488,-12529,-51,81,-53,80,-132,-133,-15,-13
,7,2018/03/15 01:40:48.79,-1135,10367,-12618,-53,83,-55,81,-136,-136,-15,-13
,8,2018/03/15 01:40:48.81,-1123,10329,-12632,-62,76,-69,72,-138,-141,-7,-1
,9,2018/03/15 01:40:48.83,-1052,10356,-12543,-75,68,-75,70,-143,-145,3,2
,10,2018/03/15 01:40:48.85,-1098,10337,-12881,-78,62,-73,63,-140,-136,8,5
,11,2018/03/15 01:40:48.87,-1260,9581,-12544,-76,67,-73,68,-143,-141,4,2
,12,2018/03/15 01:40:48.89,-1206,10036,-13104,-64,79,-65,80,-143,-145,-7,-7
,13,2018/03/15 01:40:48.91,-947,10462,-12836,-66,83,-77,85,-149,-162,-8,-4
,14,2018/03/15 01:40:48.93,-974,10472,-12673,-85,83,-85,92,-168,-177,1,-3
,15,2018/03/15 01:40:48.95,-1046,10341,-12786,-82,94,-75,97,-176,-172,-6,-11
,16,2018/03/15 01:40:48.97,-1180,10370,-12564,-76,99,-78,96,-175,-174,-11,-9
,17,2018/03/15 01:40:48.99,-1253,10123,-12637,-71,99,-70,96,-170,-166,-14,-13
,18,2018/03/15 01:40:49.01,-1200,10099,-12778,-70,98,-62,107,-168,-169,-14,-22
,19,2018/03/15 01:40:49.03,-1136,10019,-12871,-66,102,-70,101,-168,-171,-18,-15
,20,2018/03/15 01:40:49.05,-1146,10101,-12825,-70,101,-69,103,-171,-172,-15,-17
,21,2018/03/15 01:40:49.07,-1161,10283,-12518,-64,102,-76,94,-166,-170,-19,-9
,22,2018/03/15 01:40:49.09,-1124,10254,-12712,-75,96,-86,81,-171,-167,-10,2
,23,2018/03/15 01:40:49.11,-1164,10287,-12583,-64,99,-53,112,-163,-165,-17,-29
,24,2018/03/15 01:40:49.13,-1101,10211,-12629,-37,125,-22,135,-162,-157,-44,-56
,25,2018/03/15 01:40:49.15,-1199,10135,-12727,-22,128,-28,123,-150,-151,-53,-47
,26,2018/03/15 01:40:49.17,-1133,10188,-12752,-28,130,-33,118,-158,-151,-51,-42
,27,2018/03/15 01:40:49.19,-1050,10188,-12663,-31,123,-34,115,-154,-149,-46,-40
,28,2018/03/15 01:40:49.21,-1184,10054,-12720,-36,110,-43,104,-146,-147,-37,-30
,29,2018/03/15 01:40:49.23,-1167,10064,-12723,-42,102,-36,106,-144,-142,-30,-35
,30,2018/03/15 01:40:49.25,-1148,10430,-12795,-39,102,-53,90,-141,-143,-31,-18
,31,2018/03/15 01:40:49.27,-1145,10340,-12583,-64,80,-70,72,-144,-142,-8,-1
,32,2018/03/15 01:40:49.29,-1296,10292,-12991,-64,82,-67,80,-146,-147,-9,-6
,33,2018/03/15 01:40:49.31,-1380,10440,-12927,-74,75,-74,74,-149,-148,0,0
,34,2018/03/15 01:40:49.33,-1371,10458,-12533,-83,62,-76,69,-145,-145,10,3
,35,2018/03/15 01:40:49.35,-1504,10032,-12304,-75,71,-68,85,-146,-153,2,-8
,36,2018/03/15 01:40:49.37,-1131,9832,-12900,-43,105,-44,103,-148,-147,-31,-29
,37,2018/03/15 01:40:49.39,-1122,10122,-12665,-24,123,-18,127,-147,-145,-49,-54
,38,2018/03/15 01:40:49.41,-1121,10489,-12669,-28,118,-35,112,-146,-147,-45,-38
,39,2018/03/15 01:40:49.43,-1121,10555,-12619,-38,108,-40,108,-146,-148,-35,-34
,40,2018/03/15 01:40:49.45,-1157,10331,-12558,-45,103,-51,96,-148,-147,-29,-22
,41,2018/03/15 01:40:49.47,-1268,10174,-12621,-50,98,-43,100,-148,-143,-24,-28
,42,2018/03/15 01:40:49.49,-1222,10072,-12498,-57,91,-61,85,-148,-146,-17,-12
,43,2018/03/15 01:40:49.51,-1216,10261,-12505,-81,64,-72,75,-145,-147,8,-1
,44,2018/03/15 01:40:49.53,-1169,10197,-12346,-73,76,-76,83,-149,-159,-1,-3
,45,2018/03/15 01:40:49.55,-1316,10326,-12999,-73,88,-76,85,-161,-161,-7,-4
,46,2018/03/15 01:40:49.57,-1148,10358,-13003,-72,89,-68,95,-161,-163,-8,-13
,47,2018/03/15 01:40:49.59,-1143,10701,-12605,-65,96,-60,97,-161,-157,-15,-18
,48,2018/03/15 01:40:49.61,-1187,10609,-12526,-65,91,-70,93,-156,-163,-13,-11
,49,2018/03/15 01:40:49.63,-1315,10418,-12802,-64,94,-56,102,-158,-158,-15,-23
,50,2018/03/15 01:40:49.65,-1343,10254,-12555,-50,103,-55,93,-153,-148,-26,-19
,51,2018/03/15 01:40:49.67,-1288,10331,-12440,-55,92,-56,95,-147,-151,-18,-19
,52,2018/03/15 01:40:49.69,-1263,10338,-12599,-57,101,-52,105,-158,-157,-22,-26
,53,2018/03/15 01:40:49.71,-1276,10272,-12733,-53,102,-53,101,-155,-154,-24,-24
,54,2018/03/15 01:40:49.73,-1163,10386,-12653,-53,100,-58,99,-153,-157,-23,-20
,55,2018/03/15 01:40:49.75,-1204,10683,-12752,-51,101,-50,107,-152,-157,-25,-28
,56,2018/03/15 01:40:49.77,-1272,10578,-12732,-49,110,-56,102,-159,-158,-30,-23
,57,2018/03/15 01:40:49.79,-1340,10397,-12739,-62,96,-54,105,-158,-159,-17,-25
,58,2018/03/15 01:40:49.81,-1322,10324,-12627,-55,99,-53,101,-154,-154,-22,-24
,59,2018/03/15 01:40:49.83,-1385,10281,-12683,-54,102,-54,101,-156,-155,-24,-23
,60,2018/03/15 01:40:49.85,-1511,10096,-12701,-49,104,-52,103,-153,-155,-27,-25
,61,2018/03/15 01:40:49.87,-1455,10237,-12541,-44,109,-40,112,-153,-152,-32,-36
,62,2018/03/15 01:40:49.89,-1427,10059,-12541,-27,122,-27,120,-149,-147,-47,-46
,63,2018/03/15 01:40:49.91,-1435,9958,-12451,-29,113,-39,98,-142,-137,-42,-29
,64,2018/03/15 01:40:49.93,-1502,10114,-12719,-29,105,-28,103,-134,-131,-38,-37
,65,2018/03/15 01:40:49.95,-1416,10233,-12646,-30,104,-28,101,-134,-129,-37,-36
,66,2018/03/15 01:40:49.97,-1376,10581,-12829,-24,104,-28,93,-128,-121,-40,-32
,67,2018/03/15 01:40:49.99,-1630,10877,-12919,-27,86,-22,86,-113,-108,-29,-32
,68,2018/03/15 01:40:50.01,-1588,10557,-12729,-24,76,-23,77,-100,-100,-26,-27
,69,2018/03/15 01:40:50.03,-1669,10266,-12640,-32,73,-42,64,-105,-106,-20,-11
,70,2018/03/15 01:40:50.05,-1730,10084,-12679,-46,69,-54,65,-115,-119,-11,-5
,71,2018/03/15 01:40:50.07,-1749,9954,-12606,-56,72,-52,73,-128,-125,-8,-10
,72,2018/03/15 01:40:50.09,-1731,9770,-12697,-56,70,-57,74,-126,-131,-7,-8
,73,2018/03/15 01:40:50.11,-1786,9789,-12626,-58,73,-57,75,-131,-132,-7,-9
,74,2018/03/15 01:40:50.13,-1700,10053,-12605,-56,76,-63,79,-132,-142,-10,-8
,75,2018/03/15 01:40:50.15,-1658,10097,-12565,-60,93,-62,104,-153,-166,-16,-21
,76,2018/03/15 01:40:50.17,-1703,10386,-12533,-60,112,-58,113,-172,-171,-26,-27
,77,2018/03/15 01:40:50.19,-1722,10256,-12611,-63,98,-66,92,-161,-158,-17,-13
,78,2018/03/15 01:40:50.21,-1716,10383,-12697,-72,88,-69,90,-160,-159,-8,-10
,79,2018/03/15 01:40:50.23,-1666,10215,-12617,-68,98,-64,94,-166,-158,-15,-15
,80,2018/03/15 01:40:50.25,-1688,10284,-12768,-61,96,-63,91,-157,-154,-17,-14
,81,2018/03/15 01:40:50.27,-1677,10288,-12687,-57,96,-50,108,-153,-158,-19,-29
,82,2018/03/15 01:40:50.29,-1669,10131,-12713,-46,109,-38,121,-155,-159,-31,-41
,83,2018/03/15 01:40:50.31,-1740,10014,-12643,-41,115,-43,115,-156,-158,-37,-36
,84,2018/03/15 01:40:50.33,-1882,10350,-12508,-50,106,-39,116,-156,-155,-28,-38
,85,2018/03/15 01:40:50.35,-1851,10510,-12458,-36,121,-43,116,-157,-159,-42,-36
,86,2018/03/15 01:40:50.37,-1845,10620,-12669,-38,120,-26,116,-158,-142,-41,-45
,87,2018/03/15 01:40:50.39,-1803,10674,-12809,-32,94,-16,98,-126,-114,-31,-41
,88,2018/03/15 01:40:50.41,-1784,10646,-12777,-12,97,-15,97,-109,-112,-42,-41
,89,2018/03/15 01:40:50.43,-1827,10332,-12476,-16,102,-18,99,-118,-117,-43,-40
,90,2018/03/15 01:40:50.45,-1890,10033,-12787,-18,101,-22,97,-119,-119,-41,-37
,91,2018/03/15 01:40:50.47,-1990,10351,-12876,-25,98,-27,99,-123,-126,-36,-36
,92,2018/03/15 01:40:50.49,-2101,10625,-12573,-40,87,-49,82,-127,-131,-23,-16
,93,2018/03/15 01:40:50.51,-1984,10491,-12461,-47,80,-44,75,-127,-119,-16,-15
,94,2018/03/15 01:40:50.53,-2065,10116,-12564,-35,74,-44,71,-109,-115,-19,-13
,95,2018/03/15 01:40:50.55,-2155,9955,-12722,-52,68,-62,62,-120,-124,-8,0
,96,2018/03/15 01:40:50.57,-2279,9834,-12414,-66,55,-66,54,-121,-120,5,6
,97,2018/03/15 01:40:50.59,-2310,9837,-12459,-80,43,-76,45,-123,-121,18,15
,98,2018/03/15 01:40:50.61,-2512,9945,-12681,-69,59,-62,64,-128,-126,5,-1
,99,2018/03/15 01:40:50.63,-2358,10035,-12559,-64,64,-61,64,-128,-125,0,-1
,100,2018/03/15 01:40:50.65,-2461,10010,-12561,-51,75,-52,75,-126,-127,-12,-11
,101,2018/03/15 01:40:50.67,-2396,9870,-12606,-58,64,-66,55,-122,-121,-3,5
,102,2018/03/15 01:40:50.69,-2416,9873,-12580,-72,46,-78,42,-118,-120,13,18
,103,2018/03/15 01:40:50.71,-2436,9966,-12573,-73,44,-88,28,-117,-116,14,30
,104,2018/03/15 01:40:50.73,-2454,10011,-12627,-86,33,-94,24,-119,-118,26,35
,105,2018/03/15 01:40:50.75,-2454,10117,-12607,-69,44,-52,58,-113,-110,12,-3
,106,2018/03/15 01:40:50.77,-2477,10170,-12549,-43,63,-44,69,-106,-113,-10,-12
,107,2018/03/15 01:40:50.79,-2578,10300,-12551,-52,69,-58,68,-121,-126,-8,-5
,108,2018/03/15 01:40:50.81,-2512,10249,-12611,-55,71,-50,66,-126,-116,-8,-8
,109,2018/03/15 01:40:50.83,-2391,10179,-12524,-48,69,-51,70,-117,-121,-10,-9
,110,2018/03/15 01:40:50.85,-2201,9572,-12204,-48,73,-44,79,-121,-123,-12,-17
,111,2018/03/15 01:40:50.87,-2218,10659,-12876,-48,75,-46,76,-123,-122,-13,-15
,112,2018/03/15 01:40:50.89,-2382,10041,-12254,-44,78,-45,78,-122,-123,-17,-16
,113,2018/03/15 01:40:50.91,-2489,10226,-12714,-46,85,-50,82,-131,-132,-19,-16
,114,2018/03/15 01:40:50.93,-2502,9946,-12515,-43,89,-42,88,-132,-130,-23,-23
,115,2018/03/15 01:40:50.95,-2524,10120,-12547,-42,88,-42,98,-130,-140,-23,-28
,116,2018/03/15 01:40:50.97,-2582,10184,-12526,-41,98,-36,110,-139,-146,-28,-37
,117,2018/03/15 01:40:50.99,-2540,10130,-12656,-31,113,-34,111,-144,-145,-41,-38
,118,2018/03/15 01:40:51.01,-2482,10139,-12579,-36,111,-37,109,-147,-146,-37,-36
,119,2018/03/15 01:40:51.03,-2573,10138,-12664,-27,114,-23,120,-141,-143,-43,-48
,120,2018/03/15 01:40:51.05,-2528,10138,-12580,-20,119,-14,124,-139,-138,-49,-55
,121,2018/03/15 01:40:51.07,-2678,10110,-12408,-18,119,-20,121,-137,-141,-50,-50
,122,2018/03/15 01:40:51.09,-2608,10295,-12528,-23,116,-26,109,-139,-135,-46,-41
,123,2018/03/15 01:40:51.11,-2505,10063,-12364,-32,109,-31,113,-141,-144,-38,-41
,124,2018/03/15 01:40:51.13,-2447,10033,-12704,-50,98,-62,89,-148,-151,-24,-13
,125,2018/03/15 01:40:51.15,-2413,10244,-12506,-87,72,-81,86,-159,-167,7,-2
,126,2018/03/15 01:40:51.17,-2475,10470,-12877,-91,79,-90,76,-170,-166,6,7
,127,2018/03/15 01:40:51.19,-2447,10330,-12628,-82,79,-88,72,-161,-160,1,8
,128,2018/03/15 01:40:51.21,-2460,10133,-12606,-84,73,-77,74,-157,-151,5,1
,129,2018/03/15 01:40:51.23,-2227,10085,-12327,-72,79,-71,77,-151,-148,-3,-3
,130,2018/03/15 01:40:51.25,-2612,10290,-12888,-74,72,-63,86,-146,-149,1,-11
,131,2018/03/15 01:40:51.27,-2641,10024,-12368,-68,73,-60,74,-141,-134,-2,-7
,132,2018/03/15 01:40:51.29,-2513,10258,-12253,-45,89,-30,98,-134,-128,-22,-34
,133,2018/03/15 01:40:51.31,-2427,10004,-12479,-26,102,-36,88,-128,-124,-38,-26
,134,2018/03/15 01:40:51.33,-2448,9997,-12514,-35,92,-28,96,-127,-124,-28,-34
,135,2018/03/15 01:40:51.35,-2406,10158,-12501,-23,90,-23,95,-113,-118,-33,-36
,136,2018/03/15 01:40:51.37,-2381,10217,-12671,-30,90,-32,86,-120,-118,-30,-27
,137,2018/03/15 01:40:51.39,-2466,10341,-12581,-31,85,-34,81,-116,-115,-27,-23
,138,2018/03/15 01:40:51.41,-2416,10201,-12526,-31,83,-35,83,-114,-118,-26,-24
,139,2018/03/15 01:40:51.43,-2372,9532,-12083,-36,82,-41,81,-118,-122,-23,-20
,140,2018/03/15 01:40:51.45,-2535,10708,-13058,-53,73,-50,79,-126,-129,-10,-14
,141,2018/03/15 01:40:51.47,-2601,10897,-12410,-43,79,-35,83,-122,-118,-18,-24
,142,2018/03/15 01:40:51.49,-2713,10130,-12441,-30,91,-34,91,-121,-125,-30,-28
,143,2018/03/15 01:40:51.51,-2561,9992,-12559,-36,94,-39,92,-130,-131,-29,-26
,144,2018/03/15 01:40:51.53,-2537,10073,-12412,-25,102,-31,98,-127,-129,-38,-33
,145,2018/03/15 01:40:51.55,-2444,10247,-12679,-40,88,-51,79,-128,-130,-24,-14
,146,2018/03/15 01:40:51.57,-2451,10381,-12560,-45,88,-45,88,-133,-133,-21,-21
,147,2018/03/15 01:40:51.59,-2403,10331,-12495,-39,93,-46,92,-132,-138,-27,-23
,148,2018/03/15 01:40:51.61,-2338,10227,-12438,-47,99,-54,92,-146,-146,-26,-19
,149,2018/03/15 01:40:51.63,-2454,10117,-12500,-50,96,-46,101,-146,-147,-23,-27
,150,2018/03/15 01:40:51.65,-2516,10158,-12512,-50,100,-51,105,-150,-156,-25,-27
,151,2018/03/15 01:40:51.67,-2480,10190,-12507,-49,107,-47,105,-156,-152,-29,-29
,152,2018/03/15 01:40:51.69,-2416,10271,-12504,-42,105,-41,107,-147,-148,-31,-33
,153,2018/03/15 01:40:51.71,-2500,10243,-12642,-32,117,-32,118,-149,-150,-42,-43
,154,2018/03/15 01:40:51.73,-2444,10218,-12546,-43,105,-47,97,-148,-144,-31,-25
,155,2018/03/15 01:40:51.75,-2543,10281,-12441,-50,86,-57,79,-136,-136,-18,-11
,156,2018/03/15 01:40:51.77,-2471,10350,-12413,-66,62,-80,41,-128,-121,2,19
,157,2018/03/15 01:40:51.79,-2417,10386,-12471,-94,31,-110,10,-125,-120,31,50
,158,2018/03/15 01:40:51.81,-2405,10326,-12641,-116,1,-123,-2,-117,-121,57,62
,159,2018/03/15 01:40:51.83,-2496,10153,-12635,-124,-6,-123,-2,-118,-121,65,62
,160,2018/03/15 01:40:51.85,-2538,10178,-12509,-123,-6,-120,2,-117,-122,64,59
,161,2018/03/15 01:40:51.87,-2524,10141,-12503,-114,6,-113,5,-120,-118,54,54
,162,2018/03/15 01:40:51.89,-2492,10157,-12496,-108,13,-109,14,-121,-123,47,47
,163,2018/03/15 01:40:51.91,-2482,10250,-12524,-103,19,-102,26,-122,-128,42,38
,164,2018/03/15 01:40:51.93,-2499,10212,-12514,-101,29,-87,46,-130,-133,36,20
,165,2018/03/15 01:40:51.95,-2451,10187,-12511,-88,35,-81,38,-123,-119,26,21
,166,2018/03/15 01:40:51.97,-2481,10196,-12521,-81,41,-76,56,-122,-132,20,10
,167,2018/03/15 01:40:51.99,-2492,10109,-12538,-70,69,-73,67,-139,-140,0,3
,168,2018/03/15 01:40:52.01,-2477,10211,-12487,-62,82,-50,91,-144,-141,-10,-20
,169,2018/03/15 01:40:52.03,-2490,10183,-12550,-54,89,-35,113,-143,-148,-17,-39
,170,2018/03/15 01:40:52.05,-2476,10135,-12652,-29,119,-21,124,-148,-145,-45,-51
,171,2018/03/15 01:40:52.07,-2419,10258,-12555,-10,138,-4,141,-148,-145,-64,-68
,172,2018/03/15 01:40:52.09,-2470,10296,-12598,5,150,13,153,-145,-140,-77,-83
,173,2018/03/15 01:40:52.11,-2512,10224,-12574,19,156,21,161,-137,-140,-87,-91
,174,2018/03/15 01:40:52.13,-2452,10248,-12478,16,159,16,158,-143,-142,-87,-87
,175,2018/03/15 01:40:52.15,-2457,10261,-12612,16,158,15,152,-142,-137,-87,-83
,176,2018/03/15 01:40:52.17,-2403,10312,-12585,20,159,20,157,-139,-137,-89,-88
,177,2018/03/15 01:40:52.19,-2436,10211,-12651,19,158,16,154,-139,-138,-88,-85
,178,2018/03/15 01:40:52.21,-2379,10095,-12577,15,151,19,149,-136,-130,-83,-84
,179,2018/03/15 01:40:52.23,-2397,10061,-12566,10,142,11,146,-132,-135,-76,-78
,180,2018/03/15 01:40:52.25,-2474,10019,-12514,10,147,14,148,-137,-134,-78,-81
,181,2018/03/15 01:40:52.27,-2463,10050,-12531,18,153,16,150,-135,-134,-85,-83
,182,2018/03/15 01:40:52.29,-2417,10033,-12538,11,146,6,143,-135,-137,-78,-74
,183,2018/03/15 01:40:52.31,-2468,10035,-12557,0,137,1,136,-137,-135,-68,-68
,184,2018/03/15 01:40:52.33,-2437,10078,-12620,-11,125,-19,124,-136,-143,-57,-52
,185,2018/03/15 01:40:52.35,-2457,10222,-12619,-16,130,-29,113,-146,-142,-57,-42
,186,2018/03/15 01:40:52.37,-2472,10232,-12582,-33,116,-38,105,-149,-143,-41,-33
,187,2018/03/15 01:40:52.39,-2449,10320,-12615,-32,116,-31,118,-148,-149,-42,-43
,188,2018/03/15 01:40:52.41,-2486,10167,-12414,-33,113,-24,114,-146,-138,-40,-45
,189,2018/03/15 01:40:52.43,-2503,10185,-12565,-23,109,-32,104,-132,-136,-43,-36
,190,2018/03/15 01:40:52.45,-2550,10254,-12505,-24,116,-34,107,-140,-141,-46,-36
,191,2018/03/15 01:40:52.47,-2472,10253,-12594,-33,103,-42,98,-136,-140,-35,-28
,192,2018/03/15 01:40:52.49,-2472,10331,-12646,-47,92,-46,90,-139,-136,-22,-22
,193,2018/03/15 01:40:52.51,-2480,10477,-12648,-50,81,-50,82,-131,-132,-15,-16
,194,2018/03/15 01:40:52.53,-2568,10198,-12566,-48,88,-58,80,-136,-138,-20,-11
,195,2018/03/15 01:40:52.55,-2476,10207,-12525,-59,80,-60,78,-139,-138,-10,-9
,196,2018/03/15 01:40:52.57,-2718,10163,-12357,-50,85,-45,89,-135,-134,-17,-22
,197,2018/03/15 01:40:52.59,-2533,10033,-12466,-34,101,-29,106,-135,-135,-33,-38
,198,2018/03/15 01:40:52.61,-2384,9916,-12423,-31,102,-29,106,-133,-135,-35,-38
,199,2018/03/15 01:40:52.63,-2342,10075,-12498,-35,106,-43,97,-141,-140,-35,-27
,200,2018/03/15 01:40:52.65,-2389,10130,-12522,-42,99,-41,96,-141,-137,-28,-27
,201,2018/03/15 01:40:52.67,-2371,10191,-12525,-34,101,-39,97,-135,-136,-33,-29
,202,2018/03/15 01:40:52.69,-2276,10276,-12522,-47,89,-46,92,-136,-138,-21,-23
,203,2018/03/15 01:40:52.71,-2321,10164,-12565,-49,88,-41,93,-137,-134,-19,-26
,204,2018/03/15 01:40:52.73,-2206,10218,-12470,-39,93,-43,88,-132,-131,-27,-22
,205,2018/03/15 01:40:52.75,-2132,10166,-12447,-50,85,-46,88,-135,-134,-17,-21
,206,2018/03/15 01:40:52.77,-2301,10486,-12954,-48,86,-46,92,-134,-138,-19,-23
,207,2018/03/15 01:40:52.79,-2407,10867,-12341,-47,85,-44,94,-132,-138,-19,-25
,208,2018/03/15 01:40:52.81,-2634,10206,-12244,-45,89,-50,91,-134,-141,-22,-20
,209,2018/03/15 01:40:52.83,-2540,9802,-12686,-42,101,-45,99,-143,-144,-29,-27
,210,2018/03/15 01:40:52.85,-2509,9955,-12583,-39,103,-37,103,-142,-140,-32,-33
,211,2018/03/15 01:40:52.87,-2394,10229,-12539,-32,105,-31,104,-137,-135,-36,-36
,212,2018/03/15 01:40:52.89,-2314,10381,-12624,-37,92,-39,94,-129,-133,-27,-27
,213,2018/03/15 01:40:52.91,-2290,10425,-12655,-46,90,-50,93,-136,-143,-22,-21
,214,2018/03/15 01:40:52.93,-2350,10315,-12527,-48,98,-49,92,-146,-141,-25,-21
,215,2018/03/15 01:40:52.95,-2299,10160,-12546,-42,96,-45,91,-138,-136,-27,-23
,216,2018/03/15 01:40:52.97,-2463,9962,-12503,-48,90,-48,94,-138,-142,-21,-23
,217,2018/03/15 01:40:52.99,-2425,9985,-12536,-46,94,-32,104,-140,-136,-24,-36
,218,2018/03/15 01:40:53.01,-2482,9991,-12533,-34,99,-32,101,-133,-133,-32,-34
,219,2018/03/15 01:40:53.03,-2485,10060,-12621,-32,99,-34,95,-131,-129,-33,-30
,220,2018/03/15 01:40:53.05,-2445,10156,-12600,-29,103,-31,100,-132,-131,-37,-34
,221,2018/03/15 01:40:53.07,-2385,10135,-12640,-33,100,-30,104,-133,-134,-33,-37
,222,2018/03/15 01:40:53.09,-2480,10302,-12550,-28,101,-27,104,-129,-131,-36,-38
,223,2018/03/15 01:40:53.11,-2470,10459,-12509,-29,100,-33,96,-129,-129,-35,-31
,224,2018/03/15 01:40:53.13,-2445,10369,-12549,-30,97,-34,97,-127,-131,-33,-31
,225,2018/03/15 01:40:53.15,-2473,10296,-12629,-32,100,-35,95,-132,-130,-34,-30
,226,2018/03/15 01:40:53.17,-2479,10379,-12606,-29,98,-31,95,-127,-126,-34,-32
,227,2018/03/15 01:40:53.19,-2472,10236,-12583,-36,94,-36,92,-130,-128,-29,-28
,228,2018/03/15 01:40:53.21,-2351,10211,-12622,-37,96,-35,95,-133,-130,-29,-30
,229,2018/03/15 01:40:53.23,-2414,10150,-12549,-53,82,-66,66,-135,-132,-14,0
,230,2018/03/15 01:40:53.25,-2419,10075,-12606,-72,55,-91,27,-127,-118,8,32
,231,2018/03/15 01:40:53.27,-2377,10073,-12490,-104,16,-127,-1,-120,-126,44,64
,232,2018/03/15 01:40:53.29,-2353,9984,-12529,-152,-29,-164,-40,-123,-124,90,102
,233,2018/03/15 01:40:53.31,-2454,10042,-12546,-161,-44,-158,-38,-117,-120,102,98
,234,2018/03/15 01:40:53.33,-2403,10144,-12582,-144,-22,-132,-12,-122,-120,83,72
,235,2018/03/15 01:40:53.35,-2468,10182,-12582,-117,2,-110,15,-119,-125,57,47
,236,2018/03/15 01:40:53.37,-2389,10211,-12575,-107,24,-98,42,-131,-140,41,28
,237,2018/03/15 01:40:53.39,-2400,10304,-12612,-86,55,-72,71,-141,-143,15,0
,238,2018/03/15 01:40:53.41,-2422,10304,-12684,-66,83,-63,86,-149,-149,-8,-11
,239,2018/03/15 01:40:53.43,-2409,10233,-12564,-55,97,-38,107,-152,-145,-21,-34
,240,2018/03/15 01:40:53.45,-2451,10173,-12542,-24,116,-9,129,-140,-138,-46,-60
,241,2018/03/15 01:40:53.47,-2381,10203,-12532,-5,132,5,143,-137,-138,-63,-74
,242,2018/03/15 01:40:53.49,-2443,10062,-12605,10,148,11,152,-138,-141,-79,-81
,243,2018/03/15 01:40:53.51,-2434,10068,-12616,12,153,8,146,-141,-138,-82,-77
,244,2018/03/15 01:40:53.53,-2384,10091,-12563,9,147,6,137,-138,-131,-78,-71
,245,2018/03/15 01:40:53.55,-2331,10045,-12613,7,140,10,145,-133,-135,-73,-77
,246,2018/03/15 01:40:53.57,-2430,10134,-12582,2,146,9,159,-144,-150,-74,-84
,247,2018/03/15 01:40:53.59,-2417,10187,-12608,-3,141,-4,138,-144,-142,-69,-67
,248,2018/03/15 01:40:53.61,-2407,10089,-12617,-4,135,-8,133,-139,-141,-65,-62
,249,2018/03/15 01:40:53.63,-2390,10178,-12581,-1,140,-5,136,-141,-141,-69,-65
,250,2018/03/15 01:40:53.65,-2348,10141,-12620,-2,141,-6,140,-143,-146,-69,-67
,251,2018/03/15 01:40:53.67,-2396,10189,-12640,-18,116,-8,128,-134,-136,-49,-60
,252,2018/03/15 01:40:53.69,-2399,10186,-12657,-7,131,-9,131,-138,-140,-62,-61
,253,2018/03/15 01:40:53.71,-2392,10091,-12655,-7,136,-3,133,-143,-136,-64,-65
,254,2018/03/15 01:40:53.73,-2358,10083,-12514,-5,136,-7,133,-141,-140,-65,-63
,255,2018/03/15 01:40:53.75,-2395,10224,-12595,-12,127,-8,129,-139,-137,-57,-60
,256,2018/03/15 01:40:53.77,-2361,10231,-12580,-15,121,-21,122,-136,-143,-53,-50
,257,2018/03/15 01:40:53.79,-2350,10205,-12641,-19,123,-23,120,-142,-143,-52,-48
,258,2018/03/15 01:40:53.81,-2409,10269,-12601,-27,124,-33,117,-151,-150,-48,-42
,259,2018/03/15 01:40:53.83,-2402,10095,-12494,-31,119,-27,115,-150,-142,-44,-44
,260,2018/03/15 01:40:53.85,-2428,10243,-12715,-30,110,-28,109,-140,-137,-40,-40
,261,2018/03/15 01:40:53.87,-2382,10338,-12605,-30,105,-29,108,-135,-137,-37,-39
,262,2018/03/15 01:40:53.89,-2405,10237,-12513,-33,107,-38,104,-140,-142,-37,-33
,263,2018/03/15 01:40:53.91,-2393,10153,-12530,-36,104,-39,98,-140,-137,-34,-29
,264,2018/03/15 01:40:53.93,-2413,10083,-12532,-39,97,-42,94,-136,-136,-29,-26
,265,2018/03/15 01:40:53.95,-2420,10094,-12526,-43,89,-42,92,-132,-134,-23,-25
,266,2018/03/15 01:40:53.97,-2419,10017,-12567,-48,88,-52,82,-136,-134,-20,-15
,267,2018/03/15 01:40:53.99,-2364,10003,-12579,-42,91,-42,83,-133,-125,-24,-20
,268,2018/03/15 01:40:54.01,-2365,10169,-12654,-36,89,-31,83,-125,-114,-26,-26
,269,2018/03/15 01:40:54.03,-2362,10192,-12691,-28,91,-20,100,-119,-120,-31,-40
,270,2018/03/15 01:40:54.05,-2333,10275,-12687,-23,96,-26,93,-119,-119,-36,-33
,271,2018/03/15 01:40:54.07,-2336,10096,-12586,-26,88,-20,89,-114,-109,-31,-34
,272,2018/03/15 01:40:54.09,-2359,10083,-12585,-21,93,-28,87,-114,-115,-36,-29
,273,2018/03/15 01:40:54.11,-2409,10065,-12618,-28,89,-36,81,-117,-117,-30,-22
,274,2018/03/15 01:40:54.13,-2481,10129,-12646,-43,85,-46,87,-128,-133,-21,-20
,275,2018/03/15 01:40:54.15,-2345,10144,-12640,-50,83,-50,85,-133,-135,-16,-17
,276,2018/03/15 01:40:54.17,-2492,10183,-12672,-57,84,-59,86,-141,-145,-13,-13
,277,2018/03/15 01:40:54.19,-2423,10234,-12568,-59,87,-58,85,-146,-143,-14,-13
,278,2018/03/15 01:40:54.21,-2338,10215,-12568,-49,93,-46,94,-142,-140,-22,-24
,279,2018/03/15 01:40:54.23,-2370,10095,-12542,-42,93,-39,101,-135,-140,-25,-31
,280,2018/03/15 01:40:54.25,-2410,10101,-12618,-41,104,-41,108,-145,-149,-31,-33
,281,2018/03/15 01:40:54.27,-2399,10146,-12533,-39,109,-32,109,-148,-141,-35,-38
,282,2018/03/15 01:40:54.29,-2540,10049,-12576,-28,120,-24,119,-148,-143,-46,-47
,283,2018/03/15 01:40:54.31,-2511,10194,-12634,-19,123,-16,123,-142,-139,-52,-53
,284,2018/03/15 01:40:54.33,-2468,10109,-12400,-21,121,-22,121,-142,-143,-50,-49
,285,2018/03/15 01:40:54.35,-2485,10159,-12659,-21,116,-13,121,-137,-134,-47,-54
,286,2018/03/15 01:40:54.37,-2461,10150,-12480,-13,115,-20,108,-128,-128,-51,-44
,287,2018/03/15 01:40:54.39,-2503,10269,-12525,-19,107,-18,107,-126,-125,-44,-44
,288,2018/03/15 01:40:54.41,-2363,10159,-12476,-24,104,-29,100,-128,-129,-40,-35
,289,2018/03/15 01:40:54.43,-2403,10302,-12677,-33,91,-33,96,-124,-129,-29,-31
,290,2018/03/15 01:40:54.45,-2416,10304,-12697,-42,92,-56,85,-134,-141,-25,-14
,291,2018/03/15 01:40:54.47,-2377,10566,-12655,-60,87,-61,84,-147,-145,-13,-11
,292,2018/03/15 01:40:54.49,-2311,10473,-12568,-56,86,-58,76,-142,-134,-15,-9
,293,2018/03/15 01:40:54.51,-2387,10321,-12646,-49,74,-47,76,-123,-123,-12,-14
,294,2018/03/15 01:40:54.53,-2403,10066,-12478,-55,72,-54,70,-127,-124,-8,-8
,295,2018/03/15 01:40:54.55,-2380,9941,-12590,-54,64,-49,71,-118,-120,-5,-11
,296,2018/03/15 01:40:54.57,-2343,9974,-12475,-50,72,-53,68,-122,-121,-11,-7
,297,2018/03/15 01:40:54.59,-2403,10058,-12582,-44,72,-42,76,-116,-118,-14,-17
,298,2018/03/15 01:40:54.61,-2424,10181,-12545,-43,76,-40,80,-119,-120,-16,-20
,299,2018/03/15 01:40:54.63,-2304,10176,-12559,-40,78,-40,80,-118,-120,-19,-20
,300,2018/03/15 01:40:54.65,-2331,10135,-12594,-41,76,-38,74,-117,-112,-17,-18
,301,2018/03/15 01:40:54.67,-2460,10155,-12584,-38,82,-44,81,-120,-125,-22,-18
,302,2018/03/15 01:40:54.69,-2394,10125,-12601,-42,88,-42,84,-130,-126,-23,-21
,303,2018/03/15 01:40:54.71,-2492,10157,-12615,-44,83,-40,84,-127,-124,-19,-22
,304,2018/03/15 01:40:54.73,-2467,10112,-12621,-37,80,-34,83,-117,-117,-21,-24
,305,2018/03/15 01:40:54.75,-2491,10170,-12572,-40,84,-44,80,-124,-124,-22,-18
,306,2018/03/15 01:40:54.77,-2438,10275,-12538,-41,81,-42,79,-122,-121,-20,-18
,307,2018/03/15 01:40:54.79,-2408,10299,-12586,-37,87,-34,89,-124,-123,-25,-27
,308,2018/03/15 01:40:54.81,-2421,10225,-12557,-30,92,-32,94,-122,-126,-31,-31
,309,2018/03/15 01:40:54.83,-2488,10166,-12582,-34,92,-28,91,-126,-119,-29,-31
,310,2018/03/15 01:40:54.85,-2425,10162,-12596,-30,88,-33,83,-118,-116,-29,-25
,311,2018/03/15 01:40:54.87,-2449,10158,-12554,-36,82,-33,88,-118,-121,-23,-27
,312,2018/03/15 01:40:54.89,-2360,10155,-12632,-32,96,-31,97,-128,-128,-32,-33
,313,2018/03/15 01:40:54.91,-2328,10154,-12613,-34,89,-28,92,-123,-120,-27,-32
,314,2018/03/15 01:40:54.93,-2435,10135,-12629,-32,92,-28,94,-124,-122,-30,-33
,315,2018/03/15 01:40:54.95,-2476,10108,-12684,-25,92,-23,91,-117,-114,-33,-34
,316,2018/03/15 01:40:54.97,-2426,10044,-12571,-21,97,-25,93,-118,-118,-38,-34
,317,2018/03/15 01:40:54.99,-2434,10056,-12592,-25,96,-28,96,-121,-124,-35,-34
,318,2018/03/15 01:40:55.01,-2380,10142,-12516,-34,92,-29,96,-126,-125,-29,-33
,319,2018/03/15 01:40:55.03,-2426,10147,-12520,-36,84,-47,79,-120,-126,-24,-16
,320,2018/03/15 01:40:55.05,-2369,10193,-12799,-53,72,-67,56,-125,-123,-9,5
,321,2018/03/15 01:40:55.07,-2316,10156,-12674,-79,42,-106,14,-121,-120,18,46
,322,2018/03/15 01:40:55.09,-2393,10120,-12637,-128,-11,-141,-28,-117,-113,69,84
,323,2018/03/15 01:40:55.11,-2405,10219,-12637,-144,-25,-133,-7,-119,-126,84,70
,324,2018/03/15 01:40:55.13,-2388,10123,-12600,-122,6,-104,27,-128,-131,58,38
,325,2018/03/15 01:40:55.15,-2385,10077,-12549,-83,51,-67,66,-134,-133,16,0
,326,2018/03/15 01:40:55.17,-2471,10079,-12569,-42,87,-30,95,-129,-125,-22,-32
,327,2018/03/15 01:40:55.19,-2335,10108,-12630,-24,104,-13,113,-128,-126,-40,-50
,328,2018/03/15 01:40:55.21,-2315,10116,-12640,-8,116,1,133,-124,-132,-54,-67
,329,2018/03/15 01:40:55.23,-2407,10115,-12653,-2,125,3,128,-127,-125,-61,-65
,330,2018/03/15 01:40:55.25,-2364,10059,-12628,13,135,-1,128,-122,-129,-74,-63
,331,2018/03/15 01:40:55.27,-2385,10079,-12588,-1,128,-8,114,-129,-122,-63,-53
,332,2018/03/15 01:40:55.29,-2379,10159,-12664,-3,124,-3,127,-127,-130,-60,-62
,333,2018/03/15 01:40:55.31,-2423,10181,-12677,-14,115,-3,129,-129,-132,-50,-63
,334,2018/03/15 01:40:55.33,-2429,10227,-12596,-8,122,-15,114,-130,-129,-57,-49
,335,2018/03/15 01:40:55.35,-2430,10217,-12567,-10,117,-18,114,-127,-132,-53,-48
,336,2018/03/15 01:40:55.37,-2387,10133,-12595,-19,113,-22,108,-132,-130,-47,-43
,337,2018/03/15 01:40:55.39,-2434,10090,-12595,-19,109,-20,114,-128,-134,-45,-47
,338,2018/03/15 01:40:55.41,-2418,10101,-12612,-27,104,-24,100,-131,-124,-38,-38
,339,2018/03/15 01:40:55.43,-2333,10095,-12632,-26,99,-31,99,-125,-130,-36,-34
,340,2018/03/15 01:40:55.45,-2363,10108,-12632,-29,101,-29,98,-130,-127,-36,-34
,341,2018/03/15 01:40:55.47,-2307,10080,-12655,-30,101,-32,100,-131,-132,-35,-34
,342,2018/03/15 01:40:55.49,-2326,10093,-12518,-32,98,-28,105,-130,-133,-33,-38
,343,2018/03/15 01:40:55.51,-2279,10163,-12663,-31,96,-31,92,-127,-123,-32,-30
,344,2018/03/15 01:40:55.53,-2403,10089,-12640,-34,91,-41,92,-125,-133,-28,-25
,345,2018/03/15 01:40:55.55,-2405,10092,-12681,-41,93,-42,86,-134,-128,-26,-22
,346,2018/03/15 01:40:55.57,-2384,10070,-12624,-46,88,-44,88,-134,-132,-21,-22
,347,2018/03/15 01:40:55.59,-2443,10161,-12657,-44,81,-38,85,-125,-123,-18,-23
,348,2018/03/15 01:40:55.61,-2461,10141,-12669,-42,80,-43,80,-122,-123,-19,-18
,349,2018/03/15 01:40:55.63,-2489,10043,-12697,-46,79,-50,75,-125,-125,-16,-12
,350,2018/03/15 01:40:55.65,-2342,10113,-12473,-52,78,-47,79,-130,-126,-13,-16
,351,2018/03/15 01:40:55.67,-2409,10190,-12495,-48,80,-46,79,-128,-125,-16,-16
,352,2018/03/15 01:40:55.69,-2329,10162,-12633,-55,67,-53,72,-122,-125,-6,-9
,353,2018/03/15 01:40:55.71,-2388,10183,-12781,-59,64,-58,66,-123,-124,-2,-4
,354,2018/03/15 01:40:55.73,-2358,10101,-12646,-53,70,-56,67,-123,-123,-8,-5
,355,2018/03/15 01:40:55.75,-2387,10123,-12624,-55,71,-61,61,-126,-122,-8,0
,356,2018/03/15 01:40:55.77,-2412,10106,-12634,-59,63,-54,70,-122,-124,-2,-8
,357,2018/03/15 01:40:55.79,-2461,10084,-12637,-56,66,-54,71,-122,-125,-5,-8
,358,2018/03/15 01:40:55.81,-2441,10068,-12621,-54,73,-52,74,-127,-126,-9,-11
,359,2018/03/15 01:40:55.83,-2463,10124,-12588,-45,81,-44,76,-126,-120,-18,-16
,360,2018/03/15 01:40:55.85,-2554,10092,-12566,-44,83,-44,82,-127,-126,-19,-19
,361,2018/03/15 01:40:55.87,-2475,10094,-12578,-47,82,-42,89,-129,-131,-17,-23
,362,2018/03/15 01:40:55.89,-2543,10159,-12587,-46,84,-41,85,-130,-126,-19,-22
,363,2018/03/15 01:40:55.91,-2465,10162,-12645,-35,80,-40,78,-115,-118,-22,-19
,364,2018/03/15 01:40:55.93,-2445,10172,-12623,-38,83,-38,80,-121,-118,-22,-21
,365,2018/03/15 01:40:55.95,-2361,10182,-12658,-33,89,-37,87,-122,-124,-28,-25
,366,2018/03/15 01:40:55.97,-2392,10147,-12632,-40,80,-37,85,-120,-122,-20,-24
,367,2018/03/15 01:40:55.99,-2324,10143,-12604,-42,82,-40,83,-124,-123,-20,-21
,368,2018/03/15 01:40:56.01,-2358,10111,-12653,-36,88,-46,88,-124,-134,-26,-21
,369,2018/03/15 01:40:56.03,-2421,10146,-12571,-42,86,-46,78,-128,-124,-22,-16
,370,2018/03/15 01:40:56.05,-2367,10071,-12617,-30,86,-41,87,-116,-128,-28,-23
,371,2018/03/15 01:40:56.07,-2384,10123,-12603,-46,84,-42,84,-130,-126,-19,-21
,372,2018/03/15 01:40:56.09,-2433,10041,-12620,-41,85,-41,82,-126,-123,-22,-20
,373,2018/03/15 01:40:56.11,-2325,10031,-12532,-30,94,-32,90,-124,-122,-32,-29
,374,2018/03/15 01:40:56.13,-2438,10036,-12594,-32,91,-39,83,-123,-122,-29,-22
,375,2018/03/15 01:40:56.15,-2457,10055,-12626,-43,85,-47,83,-128,-130,-21,-18
,376,2018/03/15 01:40:56.17,-2393,10182,-12650,-49,77,-46,80,-126,-126,-14,-17
,377,2018/03/15 01:40:56.19,-2409,10192,-12651,-48,82,-48,85,-130,-133,-17,-18
,378,2018/03/15 01:40:56.21,-2399,10240,-12591,-44,92,-45,93,-136,-138,-24,-24
,379,2018/03/15 01:40:56.23,-2448,10151,-12638,-44,90,-47,86,-134,-133,-23,-19
,380,2018/03/15 01:40:56.25,-2454,10087,-12751,-39,99,-31,108,-138,-139,-30,-38
,381,2018/03/15 01:40:56.27,-2414,10037,-12556,-29,108,-21,113,-137,-134,-39,-46
,382,2018/03/15 01:40:56.29,-2533,10231,-12612,-30,112,-32,112,-142,-144,-41,-40
,383,2018/03/15 01:40:56.31,-2412,10176,-12513,-27,114,-29,113,-141,-142,-43,-42
,384,2018/03/15 01:40:56.33,-2355,10177,-12569,-26,120,-31,117,-146,-148,-47,-43
,385,2018/03/15 01:40:56.35,-2335,10314,-12603,-28,121,-24,122,-149,-146,-46,-49
,386,2018/03/15 01:40:56.37,-2405,10217,-12722,-30,113,-30,113,-143,-143,-41,-41
,387,2018/03/15 01:40:56.39,-2319,10329,-12616,-40,109,-41,106,-149,-147,-34,-32
,388,2018/03/15 01:40:56.41,-2430,10245,-12528,-26,114,-20,118,-140,-138,-44,-49
,389,2018/03/15 01:40:56.43,-2407,10131,-12594,-21,118,-22,114,-139,-136,-48,-46
,390,2018/03/15 01:40:56.45,-2450,10255,-12682,-30,110,-20,117,-140,-137,-40,-48
,391,2018/03/15 01:40:56.47,-2429,10357,-12464,-27,104,-19,106,-131,-125,-38,-43
,392,2018/03/15 01:40:56.49,-2438,10101,-12545,-30,96,-36,89,-126,-125,-33,-26
,393,2018/03/15 01:40:56.51,-2377,10015,-12515,-38,86,-35,90,-124,-125,-24,-27
,394,2018/03/15 01:40:56.53,-2344,9975,-12450,-32,98,-34,93,-130,-127,-33,-29
,395,2018/03/15 01:40:56.55,-2435,10083,-12589,-36,84,-35,90,-120,-125,-24,-27
,396,2018/03/15 01:40:56.57,-2410,10121,-12617,-40,88,-39,91,-128,-130,-24,-26
,397,2018/03/15 01:40:56.59,-2369,10208,-12651,-35,95,-36,91,-130,-127,-30,-27
,398,2018/03/15 01:40:56.61,-2376,10168,-12631,-30,97,-34,95,-127,-129,-33,-30
,399,2018/03/15 01:40:56.63,-2406,10281,-12659,-38,94,-37,92,-132,-129,-28,-27
,400,2018/03/15 01:40:56.65,-2380,10260,-12623,-36,91,-32,96,-127,-128,-27,-32
,401,2018/03/15 01:40:56.67,-2462,10219,-12648,-35,92,-38,92,-127,-130,-28,-27
,402,2018/03/15 01:40:56.69,-2466,10161,-12548,-42,93,-45,83,-135,-128,-25,-19
,403,2018/03/15 01:40:56.71,-2485,10220,-12540,-40,85,-42,86,-125,-128,-22,-22
,404,2018/03/15 01:40:56.73,-2458,10210,-12573,-44,88,-41,88,-132,-129,-22,-23
,405,2018/03/15 01:40:56.75,-2378,10275,-12611,-42,84,-40,86,-126,-126,-21,-23
,406,2018/03/15 01:40:56.77,-2427,10212,-12568,-42,85,-44,86,-127,-130,-21,-21
,407,2018/03/15 01:40:56.79,-2318,10116,-12543,-47,84,-47,83,-131,-130,-18,-18
,408,2018/03/15 01:40:56.81,-2361,10109,-12587,-38,97,-42,94,-135,-136,-29,-26
,409,2018/03/15 01:40:56.83,-2389,10171,-12599,-44,90,-45,90,-134,-135,-23,-22
,410,2018/03/15 01:40:56.85,-2327,10122,-12593,-51,87,-56,82,-138,-138,-18,-13
,411,2018/03/15 01:40:56.87,-2365,10083,-12612,-46,86,-44,89,-132,-133,-20,-22
,412,2018/03/15 01:40:56.89,-2379,10088,-12559,-32,98,-34,91,-130,-125,-33,-28
,413,2018/03/15 01:40:56.91,-2338,10167,-12617,-32,97,-38,88,-129,-126,-32,-25
,414,2018/03/15 01:40:56.93,-2389,10173,-12590,-35,93,-36,95,-128,-131,-29,-29
,415,2018/03/15 01:40:56.95,-2348,10152,-12527,-42,80,-33,89,-122,-122,-19,-28
,416,2018/03/15 01:40:56.97,-2369,10151,-12607,-36,91,-42,87,-127,-129,-27,-22
,417,2018/03/15 01:40:56.99,-2421,10246,-12594,-34,92,-35,92,-126,-127,-29,-28
,418,2018/03/15 01:40:57.01,-2474,10246,-12661,-37,92,-38,93,-129,-131,-27,-27
,419,2018/03/15 01:40:57.03,-2466,10227,-12620,-38,91,-40,91,-129,-131,-26,-25
,420,2018/03/15 01:40:57.05,-2494,10228,-12641,-47,85,-42,94,-132,-136,-19,-26
,421,2018/03/15 01:40:57.07,-2501,10180,-12570,-43,91,-46,85,-134,-131,-24,-19
,422,2018/03/15 01:40:57.09,-2486,10125,-12490,-39,93,-40,88,-132,-128,-27,-24
,423,2018/03/15 01:40:57.11,-2432,10116,-12560,-37,87,-38,83,-124,-121,-25,-22
,424,2018/03/15 01:40:57.13,-2446,10096,-12566,-39,82,-33,91,-121,-124,-21,-29
,425,2018/03/15 01:40:57.15,-2489,10147,-12588,-32,92,-35,94,-124,-129,-30,-29
,426,2018/03/15 01:40:57.17,-2488,10128,-12537,-39,92,-38,91,-131,-129,-26,-26
,427,2018/03/15 01:40:57.19,-2454,10161,-12529,-35,96,-39,86,-131,-125,-30,-23
,428,2018/03/15 01:40:57.21,-2400,10090,-12561,-40,84,-42,89,-124,-131,-22,-23
,429,2018/03/15 01:40:57.23,-2334,10196,-12605,-44,88,-35,92,-132,-127,-22,-28
,430,2018/03/15 01:40:57.25,-2356,10200,-12596,-41,87,-44,84,-128,-128,-23,-20
,431,2018/03/15 01:40:57.27,-2352,10185,-12650,-47,84,-42,89,-131,-131,-18,-23
,432,2018/03/15 01:40:57.29,-2376,10218,-12596,-41,92,-36,92,-133,-128,-25,-28
,433,2018/03/15 01:40:57.31,-2339,10202,-12620,-40,90,-40,92,-130,-132,-25,-26
,434,2018/03/15 01:40:57.33,-2364,10207,-12621,-46,86,-37,97,-132,-134,-20,-30
,435,2018/03/15 01:40:57.35,-2438,10119,-12592,-40,91,-36,90,-131,-126,-25,-27
,436,2018/03/15 01:40:57.37,-2405,10103,-12600,-39,92,-51,81,-131,-132,-26,-15
,437,2018/03/15 01:40:57.39,-2412,10196,-12606,-58,72,-66,60,-130,-126,-7,3
,438,2018/03/15 01:40:57.41,-2421,10148,-12587,-72,48,-77,37,-120,-114,12,20
,439,2018/03/15 01:40:57.43,-2367,10122,-12542,-95,19,-108,14,-114,-122,38,47
,440,2018/03/15 01:40:57.45,-2406,10148,-12582,-114,8,-112,14,-122,-126,53,49
,441,2018/03/15 01:40:57.47,-2353,10124,-12656,-104,32,-97,40,-136,-137,36,28
,442,2018/03/15 01:40:57.49,-2364,10101,-12582,-78,57,-66,72,-135,-138,10,-3
,443,2018/03/15 01:40:57.51,-2334,10067,-12628,-57,77,-43,88,-134,-131,-10,-22
,444,2018/03/15 01:40:57.53,-2522,10108,-12585,-38,96,-32,104,-134,-136,-29,-36
,445,2018/03/15 01:40:57.55,-2404,10178,-12623,-29,105,-30,108,-134,-138,-38,-39
,446,2018/03/15 01:40:57.57,-2418,10238,-12640,-28,109,-26,108,-137,-134,-40,-41
,447,2018/03/15 01:40:57.59,-2425,10204,-12647,-23,115,-28,110,-138,-138,-46,-41
,448,2018/03/15 01:40:57.61,-2357,10184,-12597,-24,108,-20,112,-132,-132,-42,-46
,449,2018/03/15 01:40:57.63,-2435,10094,-12593,-26,103,-30,105,-129,-135,-38,-37
,450,2018/03/15 01:40:57.65,-2489,10079,-12641,-34,104,-45,97,-138,-142,-35,-26
,451,2018/03/15 01:40:57.67,-2422,10009,-12717,-40,102,-57,87,-142,-144,-31,-15
,452,2018/03/15 01:40:57.69,-2392,10053,-12487,-57,87,-62,84,-144,-146,-15,-11
,453,2018/03/15 01:40:57.71,-2353,10036,-12563,-54,90,-53,90,-144,-143,-18,-18
,454,2018/03/15 01:40:57.73,-2396,10183,-12642,-56,85,-61,80,-141,-141,-14,-9
,455,2018/03/15 01:40:57.75,-2405,10221,-12741,-58,84,-62,80,-142,-142,-13,-9
,456,2018/03/15 01:40:57.77,-2405,10294,-12698,-59,85,-63,79,-144,-142,-13,-8
,457,2018/03/15 01:40:57.79,-2403,10218,-12671,-59,83,-56,82,-142,-138,-12,-13
,458,2018/03/15 01:40:57.81,-2407,10179,-12558,-62,73,-61,76,-135,-137,-5,-7
,459,2018/03/15 01:40:57.83,-2414,10118,-12574,-61,74,-58,78,-135,-136,-6,-10
,460,2018/03/15 01:40:57.85,-2436,10087,-12632,-58,81,-61,81,-139,-142,-11,-10
,461,2018/03/15 01:40:57.87,-2388,10090,-12594,-56,89,-56,88,-145,-144,-16,-16
,462,2018/03/15 01:40:57.89,-2390,10116,-12651,-52,91,-43,93,-143,-136,-19,-25
,463,2018/03/15 01:40:57.91,-2358,10121,-12602,-46,86,-45,90,-132,-135,-20,-22
,464,2018/03/15 01:40:57.93,-2432,10062,-12568,-48,85,-50,82,-133,-132,-18,-16
,465,2018/03/15 01:40:57.95,-2365,10051,-12633,-44,86,-40,86,-130,-126,-21,-23
,466,2018/03/15 01:40:57.97,-2380,10073,-12620,-36,90,-38,88,-126,-126,-27,-25
,467,2018/03/15 01:40:57.99,-2392,10163,-12673,-39,88,-36,92,-127,-128,-24,-28
,468,2018/03/15 01:40:58.01,-2336,10158,-12671,-38,87,-36,88,-125,-124,-24,-26
,469,2018/03/15 01:40:58.03,-2380,10115,-12659,-39,85,-42,84,-124,-126,-23,-21
,470,2018/03/15 01:40:58.05,-2503,10141,-12687,-42,85,-42,80,-127,-122,-21,-19
,471,2018/03/15 01:40:58.07,-2450,10115,-12657,-47,81,-49,80,-128,-129,-17,-15
,472,2018/03/15 01:40:58.09,-2435,10178,-12600,-60,68,-45,79,-128,-124,-4,-17
,473,2018/03/15 01:40:58.11,-2511,10153,-12642,-42,74,-36,82,-116,-118,-16,-23
,474,2018/03/15 01:40:58.13,-2493,10054,-12591,-45,72,-50,67,-117,-117,-13,-8
,475,2018/03/15 01:40:58.15,-2422,10006,-12682,-49,68,-51,70,-117,-121,-9,-9
,476,2018/03/15 01:40:58.17,-2396,10082,-12620,-51,71,-51,74,-122,-125,-10,-11
,477,2018/03/15 01:40:58.19,-2366,10133,-12607,-55,72,-50,76,-127,-126,-8,-13
,478,2018/03/15 01:40:58.21,-2296,10130,-12659,-48,72,-43,77,-120,-120,-12,-17
,479,2018/03/15 01:40:58.23,-2344,10086,-12646,-40,76,-45,70,-116,-115,-18,-12
,480,2018/03/15 01:40:58.25,-2418,10079,-12575,-49,76,-54,72,-125,-126,-13,-9
,481,2018/03/15 01:40:58.27,-2371,10070,-12583,-52,72,-49,74,-124,-123,-10,-12
,482,2018/03/15 01:40:58.29,-2423,10156,-12658,-53,70,-50,77,-123,-127,-8,-13
,483,2018/03/15 01:40:58.31,-2433,10135,-12580,-50,78,-49,76,-128,-125,-14,-13
,484,2018/03/15 01:40:58.33,-2475,10158,-12632,-52,74,-53,72,-126,-125,-11,-9
,485,2018/03/15 01:40:58.35,-2494,10149,-12657,-49,76,-52,70,-125,-122,-13,-9
,486,2018/03/15 01:40:58.37,-2495,10064,-12589,-48,73,-46,78,-121,-124,-12,-16
,487,2018/03/15 01:40:58.39,-2399,10086,-12653,-49,70,-48,73,-119,-121,-10,-12
,488,2018/03/15 01:40:58.41,-2438,10111,-12468,-46,74,-45,74,-120,-119,-14,-14
,489,2018/03/15 01:40:58.43,-2460,10188,-12456,-47,74,-51,69,-121,-120,-13,-9
,490,2018/03/15 01:40:58.45,-2447,10153,-12648,-48,73,-49,75,-121,-124,-12,-13
,491,2018/03/15 01:40:58.47,-2382,10190,-12724,-41,80,-42,78,-121,-120,-19,-18
,492,2018/03/15 01:40:58.49,-2486,10163,-12658,-40,75,-50,69,-115,-119,-17,-9
,493,2018/03/15 01:40:58.51,-2397,10148,-12646,-44,75,-43,73,-119,-116,-15,-15
,494,2018/03/15 01:40:58.53,-2422,10084,-12571,-40,82,-39,76,-122,-115,-21,-18
,495,2018/03/15 01:40:58.55,-2402,10064,-12614,-32,80,-33,75,-112,-108,-24,-21
,496,2018/03/15 01:40:58.57,-2353,9971,-12581,-34,72,-34,76,-106,-110,-19,-21
,497,2018/03/15 01:40:58.59,-2518,10112,-12605,-39,68,-36,71,-107,-107,-14,-17
,498,2018/03/15 01:40:58.61,-2440,10089,-12640,-31,74,-31,74,-105,-105,-21,-21
,499,2018/03/15 01:40:58.63,-2415,10120,-12620,-29,76,-32,74,-105,-106,-23,-21
,500,2018/03/15 01:40:58.65,-2435,10095,-12620,-31,76,-35,76,-107,-111,-22,-20
,501,2018/03/15 01:40:58.67,-2452,10142,-12519,-41,73,-41,76,-114,-117,-16,-17
,502,2018/03/15 01:40:58.69,-2413,10074,-12645,-43,73,-36,76,-116,-112,-15,-20
,503,2018/03/15 01:40:58.71,-2381,10148,-12631,-36,72,-40,70,-108,-110,-18,-15
,504,2018/03/15 01:40:58.73,-2409,10175,-12675,-41,75,-42,70,-116,-112,-17,-14
,505,2018/03/15 01:40:58.75,-2422,10100,-12650,-34,73,-31,75,-107,-106,-19,-22
,506,2018/03/15 01:40:58.77,-2510,10064,-12617,-37,73,-38,76,-110,-114,-18,-19
,507,2018/03/15 01:40:58.79,-2463,10148,-12626,-39,72,-35,79,-111,-114,-16,-22
,508,2018/03/15 01:40:58.81,-2431,10125,-12603,-29,78,-27,75,-107,-102,-24,-24
,509,2018/03/15 01:40:58.83,-2441,10086,-12625,-26,80,-30,78,-106,-108,-27,-24
,510,2018/03/15 01:40:58.85,-2389,10195,-12617,-27,80,-24,82,-107,-106,-26,-29
,511,2018/03/15 01:40:58.87,-2433,10091,-12585,-24,81,-16,89,-105,-105,-28,-36
,512,2018/03/15 01:40:58.89,-2351,10050,-12653,-32,76,-30,79,-108,-109,-22,-24
,513,2018/03/15 01:40:58.91,-2456,10070,-12703,-37,73,-26,84,-110,-110,-18,-29
,514,2018/03/15 01:40:58.93,-2408,10023,-12594,-24,88,-31,84,-112,-115,-32,-26
,515,2018/03/15 01:40:58.95,-2380,10072,-12632,-25,84,-20,88,-109,-108,-29,-34
,516,2018/03/15 01:40:58.97,-2416,10071,-12621,-27,81,-24,87,-108,-111,-27,-31
,517,2018/03/15 01:40:58.99,-2388,10147,-12641,-27,80,-23,82,-107,-105,-26,-29
,518,2018/03/15 01:40:59.01,-2348,10152,-12605,-18,87,-21,87,-105,-108,-34,-33
,519,2018/03/15 01:40:59.03,-2453,10084,-12617,-24,90,-25,87,-114,-112,-33,-31
,520,2018/03/15 01:40:59.05,-2477,10047,-12707,-22,86,-18,87,-108,-105,-32,-34
,521,2018/03/15 01:40:59.07,-2452,10105,-12667,-16,84,-16,85,-100,-101,-34,-34
,522,2018/03/15 01:40:59.09,-2423,10062,-12585,-20,81,-20,81,-101,-101,-30,-30
,523,2018/03/15 01:40:59.11,-2429,10127,-12548,-15,88,-20,88,-103,-108,-36,-34
,524,2018/03/15 01:40:59.13,-2435,10156,-12552,-17,91,-18,90,-108,-108,-37,-36
,525,2018/03/15 01:40:59.15,-2367,10151,-12740,-20,92,-18,96,-112,-114,-36,-39
,526,2018/03/15 01:40:59.17,-2381,10116,-12696,-17,92,-18,94,-109,-112,-37,-38
,527,2018/03/15 01:40:59.19,-2386,10188,-12675,-24,90,-28,86,-114,-114,-33,-29
,528,2018/03/15 01:40:59.21,-2326,10120,-12706,-22,91,-25,90,-113,-115,-34,-32
,529,2018/03/15 01:40:59.23,-2369,10092,-12596,-26,94,-26,93,-120,-119,-34,-33
,530,2018/03/15 01:40:59.25,-2376,10031,-12600,-26,91,-34,86,-117,-120,-32,-26
,531,2018/03/15 01:40:59.27,-2457,10054,-12686,-47,70,-52,61,-117,-113,-11,-4
,532,2018/03/15 01:40:59.29,-2409,10051,-12582,-54,55,-75,30,-109,-105,0,22
,533,2018/03/15 01:40:59.31,-2434,10016,-12620,-91,12,-121,-22,-103,-99,39,71
,534,2018/03/15 01:40:59.33,-2416,10080,-12628,-121,-14,-119,-9,-107,-110,67,64
,535,2018/03/15 01:40:59.35,-2398,10047,-12627,-108,3,-97,19,-111,-116,52,39
,536,2018/03/15 01:40:59.37,-2402,10113,-12602,-88,30,-75,45,-118,-120,29,15
,537,2018/03/15 01:40:59.39,-2490,10174,-12688,-56,65,-39,76,-121,-115,-4,-18
,538,2018/03/15 01:40:59.41,-2496,10075,-12718,-21,93,-13,101,-114,-114,-36,-44
,539,2018/03/15 01:40:59.43,-2362,10167,-12690,-6,112,1,118,-118,-117,-53,-59
,540,2018/03/15 01:40:59.45,-2390,10134,-12700,4,119,6,123,-115,-117,-61,-64
,541,2018/03/15 01:40:59.47,-2399,10112,-12666,2,117,4,118,-115,-114,-59,-61
,542,2018/03/15 01:40:59.49,-2392,10063,-12614,8,123,11,122,-115,-111,-65,-66
,543,2018/03/15 01:40:59.51,-2362,10041,-12635,12,125,8,121,-113,-113,-68,-64
,544,2018/03/15 01:40:59.53,-2454,10072,-12639,5,122,6,124,-117,-118,-63,-65
,545,2018/03/15 01:40:59.55,-2398,10058,-12676,4,119,5,122,-115,-117,-61,-63
,546,2018/03/15 01:40:59.57,-2417,10067,-12638,-2,114,-8,109,-116,-117,-56,-50
,547,2018/03/15 01:40:59.59,-2350,10083,-12697,-6,114,-10,111,-120,-121,-54,-50
,548,2018/03/15 01:40:59.61,-2337,10039,-12612,-7,113,-7,111,-120,-118,-53,-52
,549,2018/03/15 01:40:59.63,-2472,10010,-12622,-5,113,-4,117,-118,-121,-54,-56
,550,2018/03/15 01:40:59.65,-2353,10005,-12671,-7,112,-4,114,-119,-118,-52,-55
,551,2018/03/15 01:40:59.67,-2317,10064,-12640,-8,111,-10,108,-119,-118,-51,-49
,552,2018/03/15 01:40:59.69,-2346,10065,-12639,-9,110,-5,111,-119,-116,-50,-53
,553,2018/03/15 01:40:59.71,-2381,10141,-12681,-13,104,-13,104,-117,-117,-45,-45
,554,2018/03/15 01:40:59.73,-2384,10139,-12670,-25,89,-15,100,-114,-115,-32,-42
,555,2018/03/15 01:40:59.75,-2450,10150,-12644,-18,99,-18,104,-117,-122,-40,-43
,556,2018/03/15 01:40:59.77,-2432,10100,-12597,-17,102,-20,94,-119,-114,-42,-37
,557,2018/03/15 01:40:59.79,-2552,10021,-12704,-17,98,-18,98,-115,-116,-40,-40
,558,2018/03/15 01:40:59.81,-2548,10127,-12701,-15,101,-14,99,-116,-113,-43,-42
,559,2018/03/15 01:40:59.83,-2538,10158,-12644,-18,97,-18,98,-115,-116,-39,-40
,560,2018/03/15 01:40:59.85,-2450,10149,-12525,-24,94,-23,97,-118,-120,-35,-37
,561,2018/03/15 01:40:59.87,-2521,10088,-12623,-23,94,-27,87,-117,-114,-35,-30
,562,2018/03/15 01:40:59.89,-2434,10057,-12763,-25,88,-26,87,-113,-113,-31,-30
,563,2018/03/15 01:40:59.91,-2426,9991,-12705,-24,90,-22,92,-114,-114,-33,-35
,564,2018/03/15 01:40:59.93,-2351,10035,-12679,-23,88,-24,89,-111,-113,-32,-32
,565,2018/03/15 01:40:59.95,-2400,10066,-12771,-31,84,-29,88,-115,-117,-26,-29
,566,2018/03/15 01:40:59.97,-2311,10233,-12818,-24,91,-30,84,-115,-114,-33,-27
,567,2018/03/15 01:40:59.99,-2430,10039,-12703,-28,89,-28,90,-117,-118,-30,-31
,568,2018/03/15 01:41:00.01,-2486,9920,-12599,-22,93,-18,96,-115,-114,-35,-39
,569,2018/03/15 01:41:00.03,-2412,9973,-12517,-23,91,-19,97,-114,-116,-34,-39
,570,2018/03/15 01:41:00.05,-2428,9971,-12625,-22,93,-24,93,-115,-117,-35,-34
,571,2018/03/15 01:41:00.07,-2376,9914,-12638,-24,92,-26,88,-116,-114,-34,-31
,572,2018/03/15 01:41:00.09,-2290,10145,-12621,-24,93,-32,86,-117,-118,-34,-27
,573,2018/03/15 01:41:00.11,-2395,10276,-12567,-27,90,-35,80,-117,-115,-31,-22
,574,2018/03/15 01:41:00.13,-2385,10286,-12624,-33,79,-36,73,-112,-109,-23,-18
,575,2018/03/15 01:41:00.15,-2396,10279,-12647,-33,80,-36,77,-113,-113,-23,-20
,576,2018/03/15 01:41:00.17,-2413,10202,-12631,-36,78,-29,82,-114,-111,-21,-26
,577,2018/03/15 01:41:00.19,-2490,10083,-12667,-26,88,-30,79,-114,-109,-31,-24
,578,2018/03/15 01:41:00.21,-2546,10059,-12619,-37,73,-38,74,-110,-112,-18,-18
,579,2018/03/15 01:41:00.23,-2427,10049,-12639,-39,73,-38,76,-112,-114,-17,-19
,580,2018/03/15 01:41:00.25,-2469,10096,-12616,-41,73,-40,72,-114,-112,-16,-16
,581,2018/03/15 01:41:00.27,-2418,10150,-12585,-35,80,-37,80,-115,-117,-22,-21
,582,2018/03/15 01:41:00.29,-2406,10169,-12550,-33,85,-29,85,-118,-114,-26,-28
,583,2018/03/15 01:41:00.31,-2381,10121,-12608,-30,80,-32,81,-110,-113,-25,-24
,584,2018/03/15 01:41:00.33,-2411,10180,-12636,-38,79,-38,81,-117,-119,-20,-21
,585,2018/03/15 01:41:00.35,-2340,10095,-12595,-34,81,-34,78,-115,-112,-23,-22
,586,2018/03/15 01:41:00.37,-2373,10101,-12589,-33,81,-37,78,-114,-115,-24,-20
,587,2018/03/15 01:41:00.39,-2407,10100,-12638,-36,81,-36,83,-117,-119,-22,-23
,588,2018/03/15 01:41:00.41,-2461,10098,-12627,-33,86,-28,93,-119,-121,-26,-32
,589,2018/03/15 01:41:00.43,-2419,10218,-12585,-28,91,-23,93,-119,-116,-31,-35
,590,2018/03/15 01:41:00.45,-2418,10231,-12631,-20,94,-27,90,-114,-117,-37,-31
,591,2018/03/15 01:41:00.47,-2424,10167,-12636,-32,91,-37,88,-123,-125,-29,-25
,592,2018/03/15 01:41:00.49,-2444,10198,-12608,-35,91,-32,95,-126,-127,-28,-31
,593,2018/03/15 01:41:00.51,-2474,10070,-12681,-35,91,-25,102,-126,-127,-28,-38
,594,2018/03/15 01:41:00.53,-2383,10057,-12587,-34,90,-32,90,-124,-122,-28,-29
,595,2018/03/15 01:41:00.55,-2478,10146,-12587,-41,78,-33,89,-119,-122,-18,-28
,596,2018/03/15 01:41:00.57,-2425,10116,-12592,-30,94,-35,90,-124,-125,-32,-27
,597,2018/03/15 01:41:00.59,-2420,10203,-12733,-33,91,-34,92,-124,-126,-29,-29
,598,2018/03/15 01:41:00.61,-2502,10206,-12628,-47,77,-37,88,-124,-125,-15,-25
,599,2018/03/15 01:41:00.63,-2440,10177,-12575,-42,80,-49,76,-122,-125,-19,-13
,600,2018/03/15 01:41:00.65,-2447,10129,-12539,-49,78,-51,77,-127,-128,-14,-13
,601,2018/03/15 01:41:00.67,-2496,10155,-12593,-47,82,-44,81,-129,-125,-17,-18
,602,2018/03/15 01:41:00.69,-2390,10112,-12551,-43,80,-44,81,-123,-125,-18,-18
,603,2018/03/15 01:41:00.71,-2394,10163,-12606,-46,78,-43,82,-124,-125,-16,-19
,604,2018/03/15 01:41:00.73,-2410,10093,-12598,-44,79,-44,79,-123,-123,-17,-17
,605,2018/03/15 01:41:00.75,-2476,10150,-12530,-35,88,-37,88,-123,-125,-26,-25
,606,2018/03/15 01:41:00.77,-2408,10097,-12582,-37,90,-36,85,-127,-121,-26,-24
,607,2018/03/15 01:41:00.79,-2379,10169,-12518,-36,85,-37,85,-121,-122,-24,-24
,608,2018/03/15 01:41:00.81,-2418,10189,-12683,-43,78,-40,82,-121,-122,-17,-21
,609,2018/03/15 01:41:00.83,-2374,10155,-12701,-40,81,-42,79,-121,-121,-20,-18
,610,2018/03/15 01:41:00.85,-2469,10148,-12665,-37,82,-41,78,-119,-119,-22,-18
,611,2018/03/15 01:41:00.87,-2506,10095,-12622,-41,80,-39,78,-121,-117,-19,-19
,612,2018/03/15 01:41:00.89,-2429,10134,-12623,-36,78,-33,79,-114,-112,-21,-23
,613,2018/03/15 01:41:00.91,-2465,10173,-12629,-40,73,-39,77,-113,-116,-16,-19
,614,2018/03/15 01:41:00.93,-2488,10142,-12548,-25,91,-33,84,-116,-117,-33,-25
,615,2018/03/15 01:41:00.95,-2465,10158,-12569,-28,90,-40,75,-118,-115,-31,-17
,616,2018/03/15 01:41:00.97,-2453,10153,-12613,-30,91,-30,88,-121,-118,-30,-29
,617,2018/03/15 01:41:00.99,-2424,10132,-12585,-32,87,-35,84,-119,-119,-27,-24
,618,2018/03/15 01:41:01.01,-2447,10226,-12598,-37,81,-33,88,-118,-121,-22,-27
,619,2018/03/15 01:41:01.03,-2420,10163,-12599,-34,91,-35,84,-125,-119,-28,-24
,620,2018/03/15 01:41:01.05,-2447,10130,-12571,-31,86,-36,83,-117,-119,-27,-23
,621,2018/03/15 01:41:01.07,-2440,10072,-12542,-40,84,-38,86,-124,-124,-22,-24
,622,2018/03/15 01:41:01.09,-2418,10144,-12575,-35,91,-32,98,-126,-130,-28,-33
,623,2018/03/15 01:41:01.11,-2446,10092,-12621,-36,92,-36,89,-128,-125,-28,-26
,624,2018/03/15 01:41:01.13,-2422,10083,-12617,-32,90,-34,88,-122,-122,-29,-27
,625,2018/03/15 01:41:01.15,-2428,10057,-12665,-32,91,-33,89,-123,-122,-29,-28
,626,2018/03/15 01:41:01.17,-2410,10102,-12642,-35,90,-34,93,-125,-127,-27,-29
,627,2018/03/15 01:41:01.19,-2387,10060,-12547,-38,90,-43,85,-128,-128,-26,-21
,628,2018/03/15 01:41:01.21,-2411,10140,-12528,-52,71,-59,63,-123,-122,-9,-2
,629,2018/03/15 01:41:01.23,-2422,10164,-12610,-67,57,-83,38,-124,-121,5,22
,630,2018/03/15 01:41:01.25,-2431,10172,-12619,-94,25,-113,4,-119,-117,34,54
,631,2018/03/15 01:41:01.27,-2455,10234,-12611,-126,-11,-125,-9,-115,-116,68,67
,632,2018/03/15 01:41:01.29,-2399,10236,-12605,-122,-4,-111,16,-118,-127,63,47
,633,2018/03/15 01:41:01.31,-2452,10166,-12637,-99,33,-81,52,-132,-133,33,14
,634,2018/03/15 01:41:01.33,-2421,10124,-12602,-62,72,-40,92,-134,-132,-5,-26
,635,2018/03/15 01:41:01.35,-2440,10060,-12650,-34,98,-26,105,-132,-131,-32,-39
,636,2018/03/15 01:41:01.37,-2435,10081,-12557,-28,96,-13,116,-124,-129,-34,-51
,637,2018/03/15 01:41:01.39,-2352,10044,-12635,-10,117,-10,119,-127,-129,-53,-54
,638,2018/03/15 01:41:01.41,-2401,10057,-12643,-2,125,-2,122,-127,-124,-61,-60
,639,2018/03/15 01:41:01.43,-2347,10097,-12601,3,125,3,124,-122,-121,-64,-63
,640,2018/03/15 01:41:01.45,-2339,10091,-12628,2,126,-1,125,-124,-126,-64,-62
,641,2018/03/15 01:41:01.47,-2371,10081,-12644,-7,120,-6,122,-127,-128,-56,-58
,642,2018/03/15 01:41:01.49,-2439,10046,-12731,-9,115,-8,116,-124,-124,-53,-54
,643,2018/03/15 01:41:01.51,-2449,10095,-12671,-8,115,-13,109,-123,-122,-53,-48
,644,2018/03/15 01:41:01.53,-2376,10083,-12690,-11,109,-14,106,-120,-120,-49,-46
,645,2018/03/15 01:41:01.55,-2389,10105,-12644,-13,110,-17,109,-123,-126,-48,-46
,646,2018/03/15 01:41:01.57,-2428,10138,-12607,-20,102,-19,105,-122,-124,-41,-43
,647,2018/03/15 01:41:01.59,-2466,10124,-12637,-22,103,-18,106,-125,-124,-40,-44
,648,2018/03/15 01:41:01.61,-2463,10089,-12651,-17,106,-25,99,-123,-124,-44,-37
,649,2018/03/15 01:41:01.63,-2430,10098,-12666,-26,98,-30,93,-124,-123,-36,-31
,650,2018/03/15 01:41:01.65,-2499,10107,-12638,-32,96,-32,98,-128,-130,-32,-33
,651,2018/03/15 01:41:01.67,-2394,10117,-12676,-35,94,-29,96,-129,-125,-29,-33
,652,2018/03/15 01:41:01.69,-2463,10158,-12708,-30,92,-32,92,-122,-124,-31,-30
,653,2018/03/15 01:41:01.71,-2380,10110,-12605,-31,93,-32,87,-124,-119,-31,-27
,654,2018/03/15 01:41:01.73,-2465,10100,-12604,-31,86,-35,82,-117,-117,-27,-23
,655,2018/03/15 01:41:01.75,-2458,10013,-12712,-29,95,-37,89,-124,-126,-33,-26
,656,2018/03/15 01:41:01.77,-2260,10024,-12668,-36,86,-33,78,-122,-111,-25,-22
,657,2018/03/15 01:41:01.79,-2416,10071,-12671,-32,85,-39,83,-117,-122,-26,-22
,658,2018/03/15 01:41:01.81,-2416,10123,-12665,-42,81,-39,82,-123,-121,-19,-21
,659,2018/03/15 01:41:01.83,-2377,10082,-12628,-38,82,-40,80,-120,-120,-22,-20
,660,2018/03/15 01:41:01.85,-2483,10071,-12596,-42,78,-38,81,-120,-119,-18,-21
,661,2018/03/15 01:41:01.87,-2415,10026,-12495,-38,79,-35,86,-117,-121,-20,-25
,662,2018/03/15 01:41:01.89,-2421,10146,-12617,-35,85,-36,82,-120,-118,-25,-23
,663,2018/03/15 01:41:01.91,-2398,10090,-12702,-32,87,-35,85,-119,-120,-27,-25
,664,2018/03/15 01:41:01.93,-2441,10247,-12787,-32,91,-27,96,-123,-123,-29,-34
,665,2018/03/15 01:41:01.95,-2490,10147,-12717,-25,98,-21,102,-123,-123,-36,-40
,666,2018/03/15 01:41:01.97,-2388,10138,-12683,-26,96,-27,97,-122,-124,-35,-35
,667,2018/03/15 01:41:01.99,-2476,9954,-12650,-32,92,-33,94,-124,-127,-30,-30
,668,2018/03/15 01:41:02.01,-2470,9998,-12739,-29,99,-33,96,-128,-129,-35,-31
,669,2018/03/15 01:41:02.03,-2453,9916,-12637,-29,103,-27,101,-132,-128,-37,-37
,670,2018/03/15 01:41:02.05,-2456,10066,-12668,-32,97,-30,103,-129,-133,-32,-36
,671,2018/03/15 01:41:02.07,-2443,10053,-12673,-30,101,-24,109,-131,-133,-35,-42
,672,2018/03/15 01:41:02.09,-2390,10124,-12620,-23,115,-27,112,-138,-139,-46,-42
,673,2018/03/15 01:41:02.11,-2520,10113,-12650,-24,116,-26,110,-140,-136,-46,-42
,674,2018/03/15 01:41:02.13,-2419,9967,-12671,-29,106,-32,108,-135,-140,-38,-38
,675,2018/03/15 01:41:02.15,-2408,9956,-12799,-36,104,-27,119,-140,-146,-34,-46
,676,2018/03/15 01:41:02.17,-2416,10013,-12635,-33,107,-33,105,-140,-138,-37,-36
,677,2018/03/15 01:41:02.19,-2411,10057,-12717,-36,95,-38,96,-131,-134,-29,-29
,678,2018/03/15 01:41:02.21,-2467,10089,-12588,-35,97,-44,86,-132,-130,-31,-21
,679,2018/03/15 01:41:02.23,-2511,10100,-12763,-33,92,-29,95,-125,-124,-29,-33
,680,2018/03/15 01:41:02.25,-2530,10053,-12640,-44,80,-36,89,-124,-125,-18,-26
,681,2018/03/15 01:41:02.27,-2518,10135,-12627,-41,81,-42,82,-122,-124,-20,-20
,682,2018/03/15 01:41:02.29,-2473,10125,-12636,-38,87,-39,85,-125,-124,-24,-23
,683,2018/03/15 01:41:02.31,-2499,10135,-12621,-38,91,-42,86,-129,-128,-26,-22
,684,2018/03/15 01:41:02.33,-2500,10111,-12699,-44,84,-42,88,-128,-130,-20,-23
,685,2018/03/15 01:41:02.35,-2502,10163,-12539,-44,81,-38,87,-125,-125,-18,-24
,686,2018/03/15 01:41:02.37,-2427,10309,-12629,-34,91,-35,90,-125,-125,-28,-27
,687,2018/03/15 01:41:02.39,-2433,10244,-12623,-35,90,-39,84,-125,-123,-27,-22
,688,2018/03/15 01:41:02.41,-2448,10215,-12627,-37,87,-34,86,-124,-120,-25,-26
,689,2018/03/15 01:41:02.43,-2450,10092,-12770,-32,87,-32,88,-119,-120,-27,-28
,690,2018/03/15 01:41:02.45,-2471,9977,-12651,-37,82,-30,90,-119,-120,-22,-30
,691,2018/03/15 01:41:02.47,-2461,9902,-12595,-24,93,-26,90,-117,-116,-34,-32
,692,2018/03/15 01:41:02.49,-2498,9928,-12656,-28,89,-36,82,-117,-118,-30,-23
,693,2018/03/15 01:41:02.51,-2405,10013,-12448,-37,84,-39,84,-121,-123,-23,-22
,694,2018/03/15 01:41:02.53,-2406,10185,-12589,-41,85,-40,86,-126,-126,-22,-23
,695,2018/03/15 01:41:02.55,-2460,10289,-12724,-40,86,-35,92,-126,-127,-23,-28
,696,2018/03/15 01:41:02.57,-2395,10204,-12675,-33,98,-41,82,-131,-123,-32,-20
,697,2018/03/15 01:41:02.59,-2390,10150,-12759,-40,83,-44,75,-123,-119,-21,-15
,698,2018/03/15 01:41:02.61,-2511,10064,-12747,-47,81,-43,85,-128,-128,-17,-21
,699,2018/03/15 01:41:02.63,-2425,10160,-12611,-46,82,-39,89,-128,-128,-18,-25
,700,2018/03/15 01:41:02.65,-2492,10236,-12562,-31,96,-40,85,-127,-125,-32,-22
,701,2018/03/15 01:41:02.67,-2364,10117,-12605,-28,99,-18,102,-127,-120,-35,-42
,702,2018/03/15 01:41:02.69,-2378,10127,-12559,-11,109,-21,98,-120,-119,-49,-38
,703,2018/03/15 01:41:02.71,-2339,10015,-12593,-29,94,-34,95,-123,-129,-32,-30
,704,2018/03/15 01:41:02.73,-2397,10031,-12620,-36,93,-31,95,-129,-126,-28,-32
,705,2018/03/15 01:41:02.75,-2455,10025,-12615,-33,87,-31,86,-120,-117,-27,-27
,706,2018/03/15 01:41:02.77,-2333,10023,-12644,-28,90,-32,87,-118,-119,-31,-27
,707,2018/03/15 01:41:02.79,-2407,10086,-12668,-32,89,-38,82,-121,-120,-28,-22
,708,2018/03/15 01:41:02.81,-2368,10127,-12684,-38,82,-36,84,-120,-120,-22,-24
,709,2018/03/15 01:41:02.83,-2395,10153,-12724,-40,78,-40,80,-118,-120,-19,-20
,710,2018/03/15 01:41:02.85,-2368,10165,-12722,-44,75,-43,76,-119,-119,-15,-16
,711,2018/03/15 01:41:02.87,-2380,10101,-12679,-40,81,-42,82,-121,-124,-20,-20
,712,2018/03/15 01:41:02.89,-2452,10095,-12605,-38,88,-35,83,-126,-118,-25,-24
,713,2018/03/15 01:41:02.91,-2534,10070,-12621,-36,82,-37,81,-118,-118,-23,-22
,714,2018/03/15 01:41:02.93,-2489,10129,-12640,-39,78,-36,80,-117,-116,-19,-22
,715,2018/03/15 01:41:02.95,-2493,10099,-12631,-40,77,-43,78,-117,-121,-18,-17
,716,2018/03/15 01:41:02.97,-2482,10111,-12682,-39,84,-34,88,-123,-122,-22,-27
,717,2018/03/15 01:41:02.99,-2452,10130,-12587,-35,82,-38,81,-117,-119,-23,-21
,718,2018/03/15 01:41:03.01,-2393,10072,-12605,-39,79,-39,83,-118,-122,-20,-22
,719,2018/03/15 01:41:03.03,-2439,10089,-12632,-41,76,-49,69,-117,-118,-17,-10
,720,2018/03/15 01:41:03.05,-2502,10105,-12619,-46,75,-46,76,-121,-122,-14,-15
,721,2018/03/15 01:41:03.07,-2331,10053,-12654,-36,86,-40,77,-122,-117,-25,-18
,722,2018/03/15 01:41:03.09,-2467,10086,-12644,-45,74,-56,67,-119,-123,-14,-5
,723,2018/03/15 01:41:03.11,-2480,10083,-12752,-62,60,-68,53,-122,-121,1,7
,724,2018/03/15 01:41:03.13,-2458,10047,-12633,-85,32,-100,18,-117,-118,26,41
,725,2018/03/15 01:41:03.15,-2398,10087,-12524,-120,-6,-138,-28,-114,-110,63,83
,726,2018/03/15 01:41:03.17,-2449,10122,-12528,-139,-29,-135,-25,-110,-110,84,80
,727,2018/03/15 01:41:03.19,-2428,10240,-12595,-128,-8,-118,10,-120,-128,68,54
,728,2018/03/15 01:41:03.21,-2413,10248,-12753,-102,31,-80,54,-133,-134,35,13
,729,2018/03/15 01:41:03.23,-2368,10189,-12766,-64,67,-50,80,-131,-130,-1,-15
,730,2018/03/15 01:41:03.25,-2363,10160,-12709,-41,87,-32,91,-128,-123,-23,-29
,731,2018/03/15 01:41:03.27,-2471,10130,-12661,-16,107,-13,109,-123,-122,-45,-48
,732,2018/03/15 01:41:03.29,-2417,10096,-12667,-12,111,-12,115,-123,-127,-49,-51
,733,2018/03/15 01:41:03.31,-2410,10047,-12619,-16,113,-13,117,-129,-130,-48,-52
,734,2018/03/15 01:41:03.33,-2397,10010,-12639,-10,117,-7,118,-127,-125,-53,-55
,735,2018/03/15 01:41:03.35,-2343,9997,-12606,-6,116,-8,111,-122,-119,-55,-51
,736,2018/03/15 01:41:03.37,-2346,9924,-12686,-7,112,-12,108,-119,-120,-52,-48
,737,2018/03/15 01:41:03.39,-2396,9993,-12629,-12,113,-18,106,-125,-124,-50,-44
,738,2018/03/15 01:41:03.41,-2416,9963,-12616,-22,102,-15,106,-124,-121,-40,-45
,739,2018/03/15 01:41:03.43,-2422,10063,-12616,-21,103,-18,107,-124,-125,-41,-44
,740,2018/03/15 01:41:03.45,-2434,10075,-12686,-19,102,-17,102,-121,-119,-41,-42
,741,2018/03/15 01:41:03.47,-2418,10147,-12732,-21,100,-26,98,-121,-124,-39,-36
,742,2018/03/15 01:41:03.49,-2374,10258,-12763,-36,92,-39,90,-128,-129,-28,-25
,743,2018/03/15 01:41:03.51,-2402,10140,-12666,-43,84,-40,86,-127,-126,-20,-23
,744,2018/03/15 01:41:03.53,-2506,10043,-12661,-38,85,-37,85,-123,-122,-23,-24
,745,2018/03/15 01:41:03.55,-2475,9803,-12659,-34,88,-40,82,-122,-122,-27,-21
,746,2018/03/15 01:41:03.57,-2540,9878,-12688,-42,84,-43,80,-126,-123,-21,-18
,747,2018/03/15 01:41:03.59,-2501,10053,-12604,-43,75,-39,79,-118,-118,-16,-20
,748,2018/03/15 01:41:03.61,-2379,10089,-12730,-40,79,-38,85,-119,-123,-19,-23
,749,2018/03/15 01:41:03.63,-2370,10291,-12708,-44,80,-47,74,-124,-121,-18,-13
,750,2018/03/15 01:41:03.65,-2265,10257,-12664,-42,79,-41,81,-121,-122,-18,-20
,751,2018/03/15 01:41:03.67,-2402,10153,-12644,-37,87,-41,82,-124,-123,-25,-20
,752,2018/03/15 01:41:03.69,-2410,9971,-12564,-47,76,-47,77,-123,-124,-14,-15
,753,2018/03/15 01:41:03.71,-2437,9973,-12595,-49,73,-47,76,-122,-123,-12,-14
,754,2018/03/15 01:41:03.73,-2452,9975,-12618,-48,74,-51,72,-122,-123,-13,-10
,755,2018/03/15 01:41:03.75,-2429,10016,-12660,-43,80,-43,81,-123,-124,-18,-19
,756,2018/03/15 01:41:03.77,-2447,10122,-12693,-39,87,-42,82,-126,-124,-24,-20
,757,2018/03/15 01:41:03.79,-2427,10056,-12711,-48,73,-41,81,-121,-122,-12,-20
,758,2018/03/15 01:41:03.81,-2380,10101,-12557,-48,74,-44,79,-122,-123,-13,-17
,759,2018/03/15 01:41:03.83,-2438,10044,-12628,-38,79,-42,78,-117,-120,-20,-18
,760,2018/03/15 01:41:03.85,-2452,10113,-12675,-42,80,-43,72,-122,-115,-19,-14
,761,2018/03/15 01:41:03.87,-2526,10135,-12650,-44,78,-38,85,-122,-123,-17,-23
,762,2018/03/15 01:41:03.89,-2495,10097,-12610,-45,72,-36,84,-117,-120,-13,-24
,763,2018/03/15 01:41:03.91,-2503,10026,-12614,-42,80,-42,81,-122,-123,-19,-19
,764,2018/03/15 01:41:03.93,-2518,10083,-12598,-34,90,-32,93,-124,-125,-28,-30
,765,2018/03/15 01:41:03.95,-2534,10077,-12673,-32,96,-36,89,-128,-125,-32,-26
,766,2018/03/15 01:41:03.97,-2441,10118,-12593,-35,87,-31,91,-122,-122,-26,-30
,767,2018/03/15 01:41:03.99,-2474,10217,-12700,-35,84,-34,85,-119,-119,-24,-25
,768,2018/03/15 01:41:04.01,-2444,10151,-12733,-38,84,-38,86,-122,-124,-23,-24
,769,2018/03/15 01:41:04.03,-2405,10184,-12606,-34,89,-36,86,-123,-122,-27,-25
,770,2018/03/15 01:41:04.05,-2465,10038,-12555,-34,89,-37,84,-123,-121,-27,-23
,771,2018/03/15 01:41:04.07,-2462,10067,-12534,-38,81,-39,84,-119,-123,-21,-22
,772,2018/03/15 01:41:04.09,-2392,10066,-12602,-43,79,-44,82,-122,-126,-18,-19
,773,2018/03/15 01:41:04.11,-2438,10111,-12716,-44,81,-42,78,-125,-120,-18,-18
,774,2018/03/15 01:41:04.13,-2400,10083,-12763,-37,80,-44,77,-117,-121,-21,-16
,775,2018/03/15 01:41:04.15,-2402,9978,-12680,-49,80,-50,79,-129,-129,-15,-14
,776,2018/03/15 01:41:04.17,-2395,10085,-12576,-48,76,-41,82,-124,-123,-14,-20
,777,2018/03/15 01:41:04.19,-2432,10239,-12615,-31,88,-16,104,-119,-120,-28,-44
,778,2018/03/15 01:41:04.21,-2500,10044,-12659,-8,117,-16,111,-125,-127,-54,-47
,779,2018/03/15 01:41:04.23,-2467,10022,-12544,-14,116,-11,114,-130,-125,-51,-51
,780,2018/03/15 01:41:04.25,-2372,10085,-12619,-14,118,-14,117,-132,-131,-52,-51
,781,2018/03/15 01:41:04.27,-2405,10156,-12666,-20,114,-20,117,-134,-137,-47,-48
,782,2018/03/15 01:41:04.29,-2427,10040,-12677,-32,107,-40,102,-139,-142,-37,-31
,783,2018/03/15 01:41:04.31,-2373,9995,-12503,-42,99,-39,99,-141,-138,-28,-30
,784,2018/03/15 01:41:04.33,-2412,10002,-12766,-34,104,-37,97,-138,-134,-35,-30
,785,2018/03/15 01:41:04.35,-2333,10308,-12765,-39,94,-45,92,-133,-137,-27,-23
,786,2018/03/15 01:41:04.37,-2415,10266,-12528,-50,90,-47,96,-140,-143,-20,-24
,787,2018/03/15 01:41:04.39,-2433,10212,-12509,-45,90,-45,86,-135,-131,-22,-20
,788,2018/03/15 01:41:04.41,-2517,10073,-12578,-47,90,-53,87,-137,-140,-21,-17
,789,2018/03/15 01:41:04.43,-2439,10094,-12619,-50,86,-49,79,-136,-128,-18,-15
,790,2018/03/15 01:41:04.45,-2416,10020,-12787,-48,81,-50,83,-129,-133,-16,-16
,791,2018/03/15 01:41:04.47,-2374,10149,-12527,-49,79,-41,84,-128,-125,-15,-21
,792,2018/03/15 01:41:04.49,-2410,10097,-12734,-40,81,-34,83,-121,-117,-20,-24
,793,2018/03/15 01:41:04.51,-2388,10303,-12626,-30,88,-33,85,-118,-118,-29,-26
,794,2018/03/15 01:41:04.53,-2493,10232,-12783,-31,89,-39,80,-120,-119,-29,-20
,795,2018/03/15 01:41:04.55,-2430,10154,-12667,-46,73,-44,76,-119,-120,-13,-16
,796,2018/03/15 01:41:04.57,-2585,10130,-12523,-42,76,-31,88,-118,-119,-17,-28
,797,2018/03/15 01:41:04.59,-2488,10031,-12529,-32,82,-30,81,-114,-111,-25,-25
,798,2018/03/15 01:41:04.61,-2248,9944,-12612,-21,93,-6,119,-114,-125,-36,-56
,799,2018/03/15 01:41:04.63,-2293,10066,-12563,-4,123,-18,106,-127,-124,-59,-44
,800,2018/03/15 01:41:04.65,-2277,10139,-12560,-22,97,-24,101,-119,-125,-37,-38
,801,2018/03/15 01:41:04.67,-2376,10156,-12653,-27,96,-35,89,-123,-124,-34,-27
,802,2018/03/15 01:41:04.69,-2376,10098,-12615,-28,93,-25,88,-121,-113,-32,-31
,803,2018/03/15 01:41:04.71,-2281,10210,-12521,-21,94,-29,89,-115,-118,-36,-30
,804,2018/03/15 01:41:04.73,-2390,10161,-12534,-30,92,-31,92,-122,-123,-31,-30
,805,2018/03/15 01:41:04.75,-2305,10066,-12596,-35,83,-31,86,-118,-117,-24,-27
,806,2018/03/15 01:41:04.77,-2376,10184,-12682,-37,81,-43,80,-118,-123,-22,-18
,807,2018/03/15 01:41:04.79,-2282,10187,-12555,-45,81,-46,81,-126,-127,-18,-17
,808,2018/03/15 01:41:04.81,-2193,10423,-12728,-46,81,-49,76,-127,-125,-17,-13
,809,2018/03/15 01:41:04.83,-2200,10287,-12404,-46,79,-42,80,-125,-122,-16,-19
,810,2018/03/15 01:41:04.85,-2274,10723,-12755,-45,74,-45,75,-119,-120,-14,-15
,811,2018/03/15 01:41:04.87,-2497,10292,-12443,-51,70,-51,73,-121,-124,-9,-11
,812,2018/03/15 01:41:04.89,-2493,9856,-12643,-48,76,-48,76,-124,-124,-14,-14
,813,2018/03/15 01:41:04.91,-2443,9740,-12656,-48,81,-50,78,-129,-128,-16,-14
,814,2018/03/15 01:41:04.93,-2387,10018,-12615,-45,83,-39,87,-128,-126,-19,-24
,815,2018/03/15 01:41:04.95,-2305,10142,-12667,-40,83,-40,86,-123,-126,-21,-23
,816,2018/03/15 01:41:04.97,-2282,10274,-12643,-42,81,-41,78,-123,-119,-19,-18
,817,2018/03/15 01:41:04.99,-2314,10234,-12608,-39,80,-40,80,-119,-120,-20,-20
,818,2018/03/15 01:41:05.01,-2291,10078,-12604,-39,90,-39,91,-129,-130,-25,-26
,819,2018/03/15 01:41:05.03,-2377,9970,-12622,-42,96,-45,88,-138,-133,-27,-21
,820,2018/03/15 01:41:05.05,-2351,9896,-12671,-58,74,-58,71,-132,-129,-8,-6
,821,2018/03/15 01:41:05.07,-2376,10026,-12744,-69,58,-79,43,-127,-122,5,18
,822,2018/03/15 01:41:05.09,-2300,9995,-12685,-95,21,-119,-2,-116,-117,37,60
,823,2018/03/15 01:41:05.11,-2327,10070,-12669,-138,-22,-157,-44,-116,-113,80,100
,824,2018/03/15 01:41:05.13,-2353,10266,-12534,-150,-36,-139,-25,-114,-114,93,82
,825,2018/03/15 01:41:05.15,-2342,10265,-12638,-132,-15,-121,5,-117,-126,73,58
,826,2018/03/15 01:41:05.17,-2368,10200,-12753,-115,21,-104,34,-136,-138,47,35
,827,2018/03/15 01:41:05.19,-2361,10130,-12719,-84,52,-70,65,-136,-135,16,2
,828,2018/03/15 01:41:05.21,-2430,10027,-12634,-52,84,-39,95,-136,-134,-16,-28
,829,2018/03/15 01:41:05.23,-2465,10063,-12643,-29,105,-18,120,-134,-138,-38,-51
,830,2018/03/15 01:41:05.25,-2416,10067,-12637,-16,123,-8,130,-139,-138,-53,-61
,831,2018/03/15 01:41:05.27,-2390,10055,-12621,-4,134,-4,136,-138,-140,-65,-66
,832,2018/03/15 01:41:05.29,-2412,10014,-12633,1,142,3,140,-141,-137,-71,-71
,833,2018/03/15 01:41:05.31,-2445,10112,-12559,6,143,4,139,-137,-135,-74,-71
,834,2018/03/15 01:41:05.33,-2421,10059,-12678,-3,131,-2,137,-134,-139,-64,-67
,835,2018/03/15 01:41:05.35,-2374,10050,-12612,-5,136,-5,137,-141,-142,-65,-66
,836,2018/03/15 01:41:05.37,-2348,9989,-12604,-9,133,-14,126,-142,-140,-62,-56
,837,2018/03/15 01:41:05.39,-2419,10047,-12664,-10,126,-12,120,-136,-132,-58,-54
,838,2018/03/15 01:41:05.41,-2384,10058,-12752,-10,123,-15,122,-133,-137,-56,-53
,839,2018/03/15 01:41:05.43,-2464,10076,-12709,-22,116,-26,124,-138,-150,-47,-49
,840,2018/03/15 01:41:05.45,-2405,10098,-12681,-29,119,-36,115,-148,-151,-45,-39
,841,2018/03/15 01:41:05.47,-2357,10132,-12714,-32,121,-43,114,-153,-157,-44,-35
,842,2018/03/15 01:41:05.49,-2332,10129,-12598,-40,118,-45,103,-158,-148,-39,-29
,843,2018/03/15 01:41:05.51,-2382,10136,-12678,-41,110,-39,114,-151,-153,-34,-37
,844,2018/03/15 01:41:05.53,-2382,10049,-12679,-33,115,-28,119,-148,-147,-41,-45
,845,2018/03/15 01:41:05.55,-2466,10067,-12684,-32,112,-32,109,-144,-141,-40,-38
,846,2018/03/15 01:41:05.57,-2368,10167,-12703,-32,109,-40,100,-141,-140,-38,-30
,847,2018/03/15 01:41:05.59,-2322,9954,-12490,-36,105,-33,106,-141,-139,-34,-36
,848,2018/03/15 01:41:05.61,-2311,10108,-12805,-34,102,-34,102,-136,-136,-34,-34
,849,2018/03/15 01:41:05.63,-2406,10194,-12676,-41,92,-40,91,-133,-131,-25,-25
,850,2018/03/15 01:41:05.65,-2436,10075,-12526,-46,84,-44,86,-130,-130,-19,-21
,851,2018/03/15 01:41:05.67,-2423,10055,-12706,-41,89,-48,82,-130,-130,-24,-17
,852,2018/03/15 01:41:05.69,-2418,9999,-12718,-49,82,-48,78,-131,-126,-16,-15
,853,2018/03/15 01:41:05.71,-2423,10346,-12446,-50,68,-48,70,-118,-118,-9,-11
,854,2018/03/15 01:41:05.73,-2521,10111,-12767,-47,70,-32,84,-117,-116,-11,-26
,855,2018/03/15 01:41:05.75,-2428,10167,-12573,-28,82,-23,85,-110,-108,-27,-31
,856,2018/03/15 01:41:05.77,-2452,10199,-12398,-5,104,3,112,-109,-109,-49,-57
,857,2018/03/15 01:41:05.79,-2474,9941,-12347,-1,111,-14,92,-112,-106,-55,-39
,858,2018/03/15 01:41:05.81,-2375,10039,-12531,-24,77,-22,80,-101,-102,-26,-29
,859,2018/03/15 01:41:05.83,-2353,10044,-12746,-25,77,-21,84,-102,-105,-26,-31
,860,2018/03/15 01:41:05.85,-2285,10165,-12741,-30,83,-30,81,-113,-111,-26,-25
,861,2018/03/15 01:41:05.87,-2252,10247,-12623,-31,81,-32,75,-112,-107,-25,-21
,862,2018/03/15 01:41:05.89,-2266,10194,-12648,-45,64,-49,62,-109,-111,-9,-6
,863,2018/03/15 01:41:05.91,-2352,10142,-12684,-57,57,-56,62,-114,-118,0,-3
,864,2018/03/15 01:41:05.93,-2104,10138,-12539,-62,56,-61,58,-118,-119,3,1
,865,2018/03/15 01:41:05.95,-2357,10551,-13015,-64,56,-69,51,-120,-120,4,9
,866,2018/03/15 01:41:05.97,-2418,10694,-12331,-62,55,-57,55,-117,-112,3,1
,867,2018/03/15 01:41:05.99,-2607,10104,-12392,-53,60,-52,66,-113,-118,-3,-7
,868,2018/03/15 01:41:06.01,-2545,9745,-12706,-58,68,-58,73,-126,-131,-5,-7
,869,2018/03/15 01:41:06.03,-2536,9884,-12607,-58,70,-52,74,-128,-126,-6,-11
,870,2018/03/15 01:41:06.05,-2344,10195,-12638,-51,77,-55,72,-128,-127,-13,-8
,871,2018/03/15 01:41:06.07,-2332,10358,-12723,-52,74,-48,72,-126,-120,-11,-12
,872,2018/03/15 01:41:06.09,-2280,10365,-12688,-46,75,-43,81,-121,-124,-14,-19
,873,2018/03/15 01:41:06.11,-2423,10213,-12706,-43,79,-38,85,-122,-123,-18,-23
,874,2018/03/15 01:41:06.13,-2381,10100,-12613,-42,84,-43,85,-126,-128,-21,-21
,875,2018/03/15 01:41:06.15,-2432,9966,-12597,-36,93,-38,90,-129,-128,-28,-26
,876,2018/03/15 01:41:06.17,-2454,9946,-12677,-36,92,-33,93,-128,-126,-28,-30
,877,2018/03/15 01:41:06.19,-2496,9972,-12623,-31,96,-29,102,-127,-131,-32,-36
,878,2018/03/15 01:41:06.21,-2397,10053,-12689,-27,105,-23,110,-132,-133,-39,-43
,879,2018/03/15 01:41:06.23,-2382,10071,-12646,-21,111,-24,110,-132,-134,-45,-43
,880,2018/03/15 01:41:06.25,-2413,10086,-12634,-24,117,-37,107,-141,-144,-46,-35
,881,2018/03/15 01:41:06.27,-2393,10170,-12620,-22,120,-23,116,-142,-139,-49,-46
,882,2018/03/15 01:41:06.29,-2416,10138,-12653,-18,117,-25,111,-135,-136,-49,-43
,883,2018/03/15 01:41:06.31,-2396,10046,-12646,-27,107,-26,109,-134,-135,-40,-41
,884,2018/03/15 01:41:06.33,-2408,10110,-12666,-26,110,-28,105,-136,-133,-42,-38
,885,2018/03/15 01:41:06.35,-2419,10131,-12585,-26,108,-31,102,-134,-133,-41,-35
,886,2018/03/15 01:41:06.37,-2480,10056,-12669,-35,100,-39,95,-135,-134,-32,-28
,887,2018/03/15 01:41:06.39,-2439,10243,-12740,-46,84,-49,84,-130,-133,-19,-17
,888,2018/03/15 01:41:06.41,-2455,10186,-12672,-52,79,-51,77,-131,-128,-13,-13
,889,2018/03/15 01:41:06.43,-2524,9922,-12616,-55,69,-57,66,-124,-123,-7,-4
,890,2018/03/15 01:41:06.45,-2532,10034,-12448,-48,76,-48,71,-124,-119,-14,-11
,891,2018/03/15 01:41:06.47,-2449,10018,-12582,-52,68,-52,70,-120,-122,-8,-9
,892,2018/03/15 01:41:06.49,-2365,10166,-12627,-57,65,-54,66,-122,-120,-4,-6
,893,2018/03/15 01:41:06.51,-2387,10517,-12793,-49,66,-48,69,-115,-117,-8,-10
,894,2018/03/15 01:41:06.53,-2424,10196,-12646,-48,71,-53,64,-119,-117,-11,-5
,895,2018/03/15 01:41:06.55,-2424,10124,-12699,-48,65,-42,74,-113,-116,-8,-16
,896,2018/03/15 01:41:06.57,-2537,10247,-12692,-43,78,-42,82,-121,-124,-17,-20
,897,2018/03/15 01:41:06.59,-2420,10221,-12535,-49,74,-41,85,-123,-126,-12,-22
,898,2018/03/15 01:41:06.61,-2364,10097,-12464,-27,96,-23,98,-123,-121,-34,-37
,899,2018/03/15 01:41:06.63,-2407,10039,-12612,-24,100,-25,98,-124,-123,-38,-36
,900,2018/03/15 01:41:06.65,-2421,10014,-12565,-32,90,-35,85,-122,-120,-29,-25
,901,2018/03/15 01:41:06.67,-2398,9998,-12553,-42,80,-30,92,-122,-122,-19,-31
,902,2018/03/15 01:41:06.69,-2448,10074,-12600,-35,83,-30,89,-118,-119,-24,-29
,903,2018/03/15 01:41:06.71,-2381,10012,-12612,-31,81,-32,82,-112,-114,-25,-25
,904,2018/03/15 01:41:06.73,-2422,10019,-12641,-35,79,-39,76,-114,-115,-22,-18
,905,2018/03/15 01:41:06.75,-2453,10120,-12650,-44,75,-48,74,-119,-122,-15,-13
,906,2018/03/15 01:41:06.77,-2324,10163,-12628,-46,74,-41,77,-120,-118,-14,-18
,907,2018/03/15 01:41:06.79,-2423,10319,-12782,-49,70,-52,72,-119,-124,-10,-10
,908,2018/03/15 01:41:06.81,-2494,10261,-12496,-52,73,-53,70,-125,-123,-10,-8
,909,2018/03/15 01:41:06.83,-2489,10175,-12615,-55,70,-57,66,-125,-123,-7,-4
,910,2018/03/15 01:41:06.85,-2526,10132,-12626,-51,74,-52,70,-125,-122,-11,-9
,911,2018/03/15 01:41:06.87,-2506,10286,-12685,-55,62,-52,69,-117,-121,-3,-8
,912,2018/03/15 01:41:06.89,-2415,10176,-12506,-56,68,-60,66,-124,-126,-6,-3
,913,2018/03/15 01:41:06.91,-2471,10014,-12686,-60,66,-63,65,-126,-128,-3,-1
,914,2018/03/15 01:41:06.93,-2446,10110,-12685,-68,66,-70,57,-134,-127,1,6
,915,2018/03/15 01:41:06.95,-2348,10203,-12576,-75,45,-86,25,-120,-111,15,30
,916,2018/03/15 01:41:06.97,-2336,10253,-12557,-107,0,-125,-15,-107,-110,53,70
,917,2018/03/15 01:41:06.99,-2324,10182,-12696,-143,-28,-146,-28,-115,-118,85,87
,918,2018/03/15 01:41:07.01,-2296,10141,-12615,-142,-20,-132,-11,-122,-121,81,71
,919,2018/03/15 01:41:07.03,-2363,10084,-12657,-117,10,-106,23,-127,-129,53,41
,920,2018/03/15 01:41:07.05,-2383,10077,-12656,-87,43,-73,58,-130,-131,22,7
,921,2018/03/15 01:41:07.07,-2396,10066,-12653,-60,68,-52,80,-128,-132,-4,-14
,922,2018/03/15 01:41:07.09,-2467,10058,-12687,-38,92,-32,96,-130,-128,-27,-32
,923,2018/03/15 01:41:07.11,-2413,10015,-12567,-21,105,-18,106,-126,-124,-42,-44
,924,2018/03/15 01:41:07.13,-2475,10219,-12518,-13,113,-14,110,-126,-124,-50,-48
,925,2018/03/15 01:41:07.15,-2429,10248,-12665,-6,118,-3,120,-124,-123,-56,-58
,926,2018/03/15 01:41:07.17,-2313,10189,-12716,-5,118,-2,127,-123,-129,-56,-62
,927,2018/03/15 01:41:07.19,-2455,10211,-12668,-8,124,-12,124,-132,-136,-58,-56
,928,2018/03/15 01:41:07.21,-2370,10163,-12614,-15,124,-19,120,-139,-139,-54,-50
,929,2018/03/15 01:41:07.23,-2428,10108,-12596,-18,123,-22,120,-141,-142,-52,-49
,930,2018/03/15 01:41:07.25,-2484,10102,-12617,-23,119,-20,122,-142,-142,-48,-51
,931,2018/03/15 01:41:07.27,-2414,9986,-12611,-21,119,-15,123,-140,-138,-49,-54
,932,2018/03/15 01:41:07.29,-2428,10074,-12571,-16,119,-19,115,-135,-134,-51,-48
,933,2018/03/15 01:41:07.31,-2450,10002,-12616,-17,119,-19,116,-136,-135,-51,-48
,934,2018/03/15 01:41:07.33,-2470,9949,-12629,-17,121,-18,118,-138,-136,-52,-50
,935,2018/03/15 01:41:07.35,-2448,10022,-12548,-19,115,-19,118,-134,-137,-48,-49
,936,2018/03/15 01:41:07.37,-2374,10047,-12561,-21,117,-23,116,-138,-139,-48,-46
,937,2018/03/15 01:41:07.39,-2381,10057,-12618,-27,112,-30,107,-139,-137,-42,-38
,938,2018/03/15 01:41:07.41,-2402,10060,-12732,-27,109,-30,104,-136,-134,-41,-37
,939,2018/03/15 01:41:07.43,-2453,10111,-12713,-27,110,-28,110,-137,-138,-41,-41
,940,2018/03/15 01:41:07.45,-2395,10158,-12732,-35,106,-31,112,-141,-143,-35,-40
,941,2018/03/15 01:41:07.47,-2419,10180,-12640,-36,106,-37,107,-142,-144,-35,-35
,942,2018/03/15 01:41:07.49,-2477,10146,-12657,-54,91,-47,96,-145,-143,-18,-24
,943,2018/03/15 01:41:07.51,-2481,10210,-12582,-44,100,-45,100,-144,-145,-28,-27
,944,2018/03/15 01:41:07.53,-2421,10107,-12629,-45,99,-43,100,-144,-143,-27,-28
,945,2018/03/15 01:41:07.55,-2442,10197,-12579,-48,92,-46,101,-140,-147,-22,-27
,946,2018/03/15 01:41:07.57,-2398,10201,-12591,-48,98,-39,103,-146,-142,-25,-32
,947,2018/03/15 01:41:07.59,-2398,10179,-12632,-40,98,-42,93,-138,-135,-29,-25
,948,2018/03/15 01:41:07.61,-2423,9892,-12587,-35,102,-34,102,-137,-136,-33,-34
,949,2018/03/15 01:41:07.63,-2432,10055,-12726,-34,102,-36,101,-136,-137,-34,-32
,950,2018/03/15 01:41:07.65,-2422,10178,-12635,-46,93,-48,93,-139,-141,-23,-22
,951,2018/03/15 01:41:07.67,-2450,10081,-12529,-49,88,-49,87,-137,-136,-19,-19
,952,2018/03/15 01:41:07.69,-2295,10051,-12508,-50,85,-55,78,-135,-133,-17,-11
,953,2018/03/15 01:41:07.71,-2477,10207,-12617,-51,80,-50,78,-131,-128,-14,-14
,954,2018/03/15 01:41:07.73,-2400,10041,-12598,-50,76,-47,79,-126,-126,-13,-16
,955,2018/03/15 01:41:07.75,-2443,10210,-12608,-46,80,-41,85,-126,-126,-17,-22
,956,2018/03/15 01:41:07.77,-2501,10221,-12545,-47,77,-50,78,-124,-128,-15,-14
,957,2018/03/15 01:41:07.79,-2477,10114,-12382,-36,86,-34,80,-122,-114,-25,-23
,958,2018/03/15 01:41:07.81,-2446,10129,-12631,-31,84,-33,85,-115,-118,-26,-26
,959,2018/03/15 01:41:07.83,-2391,10259,-12679,-36,82,-36,82,-118,-118,-23,-23
,960,2018/03/15 01:41:07.85,-2358,10250,-12599,-41,76,-39,78,-117,-117,-17,-19
,961,2018/03/15 01:41:07.87,-2393,10166,-12645,-34,77,-38,71,-111,-109,-21,-16
,962,2018/03/15 01:41:07.89,-2328,10137,-12579,-33,78,-46,68,-111,-114,-22,-11
,963,2018/03/15 01:41:07.91,-2368,10138,-12595,-32,81,-35,76,-113,-111,-24,-20
,964,2018/03/15 01:41:07.93,-2344,10103,-12576,-31,81,-34,82,-112,-116,-25,-24
,965,2018/03/15 01:41:07.95,-2408,10135,-12644,-44,76,-45,74,-120,-119,-16,-14
,966,2018/03/15 01:41:07.97,-2371,10129,-12667,-38,80,-38,86,-118,-124,-21,-24
,967,2018/03/15 01:41:07.99,-2406,10106,-12529,-36,92,-43,85,-128,-128,-28,-21
,968,2018/03/15 01:41:08.01,-2455,10118,-12547,-40,85,-38,84,-125,-122,-22,-23
,969,2018/03/15 01:41:08.03,-2356,10100,-12501,-43,78,-42,85,-121,-127,-17,-21
,970,2018/03/15 01:41:08.05,-2389,10107,-12536,-39,87,-34,91,-126,-125,-24,-28
,971,2018/03/15 01:41:08.07,-2373,10231,-12601,-35,88,-34,90,-123,-124,-26,-28
,972,2018/03/15 01:41:08.09,-2359,10128,-12720,-32,97,-34,94,-129,-128,-32,-30
,973,2018/03/15 01:41:08.11,-2347,10120,-12672,-32,92,-30,92,-124,-122,-30,-31
,974,2018/03/15 01:41:08.13,-2381,10193,-12611,-34,91,-33,94,-125,-127,-28,-30
,975,2018/03/15 01:41:08.15,-2391,10153,-12559,-32,90,-34,92,-122,-126,-29,-29
,976,2018/03/15 01:41:08.17,-2416,10188,-12591,-38,94,-39,90,-132,-129,-28,-25
,977,2018/03/15 01:41:08.19,-2454,10117,-12605,-34,90,-38,81,-124,-119,-28,-21
,978,2018/03/15 01:41:08.21,-2456,10144,-12557,-40,81,-38,87,-121,-125,-20,-24
,979,2018/03/15 01:41:08.23,-2375,10138,-12579,-38,85,-32,93,-123,-125,-23,-30
,980,2018/03/15 01:41:08.25,-2417,10198,-12559,-36,90,-39,88,-126,-127,-27,-24
,981,2018/03/15 01:41:08.27,-2420,10164,-12593,-40,87,-37,89,-127,-126,-23,-26
,982,2018/03/15 01:41:08.29,-2362,10174,-12580,-41,92,-44,87,-133,-131,-25,-21
,983,2018/03/15 01:41:08.31,-2352,10124,-12637,-56,71,-43,84,-127,-127,-7,-20
,984,2018/03/15 01:41:08.33,-2384,10041,-12478,-43,82,-40,93,-125,-133,-19,-26
,985,2018/03/15 01:41:08.35,-2347,10136,-12540,-38,89,-39,88,-127,-127,-25,-24
,986,2018/03/15 01:41:08.37,-2451,10110,-12690,-40,88,-47,82,-128,-129,-24,-17
,987,2018/03/15 01:41:08.39,-2497,10204,-12645,-48,84,-48,84,-132,-132,-18,-18
,988,2018/03/15 01:41:08.41,-2507,10173,-12625,-50,78,-46,80,-128,-126,-14,-17
,989,2018/03/15 01:41:08.43,-2571,10058,-12652,-44,79,-40,84,-123,-124,-17,-22
,990,2018/03/15 01:41:08.45,-2504,10169,-12457,-43,81,-47,79,-124,-126,-19,-16
,991,2018/03/15 01:41:08.47,-2550,9952,-12606,-43,87,-42,83,-130,-125,-22,-20
,992,2018/03/15 01:41:08.49,-2427,10145,-12698,-39,82,-37,81,-121,-118,-21,-22
,993,2018/03/15 01:41:08.51,-2422,10245,-12654,-38,82,-38,86,-120,-124,-22,-24
,994,2018/03/15 01:41:08.53,-2313,10339,-12613,-40,82,-34,87,-122,-121,-21,-26
,995,2018/03/15 01:41:08.55,-2347,10353,-12586,-32,89,-35,86,-121,-121,-28,-25
,996,2018/03/15 01:41:08.57,-2405,10203,-12623,-34,89,-36,84,-123,-120,-27,-24
,997,2018/03/15 01:41:08.59,-2392,10022,-12587,-32,89,-29,94,-121,-123,-28,-32
,998,2018/03/15 01:41:08.61,-2401,10040,-12555,-31,91,-35,89,-122,-124,-30,-27
,999,2018/03/15 01:41:08.63,-2398,10015,-12645,-41,81,-39,84,-122,-123,-20,-22
,1000,2018/03/15 01:41:08.65,-2421,10013,-12621,-37,85,-38,83,-122,-121,-24,-22
,1001,2018/03/15 01:41:08.67,-2416,10101,-12488,-34,89,-38,85,-123,-123,-27,-23
,1002,2018/03/15 01:41:08.69,-2388,10148,-12592,-32,89,-42,83,-121,-125,-28,-20
,1003,2018/03/15 01:41:08.71,-2383,10201,-12642,-43,82,-48,75,-125,-123,-19,-13
,1004,2018/03/15 01:41:08.73,-2314,10159,-12650,-42,81,-46,78,-123,-124,-19,-16
,1005,2018/03/15 01:41:08.75,-2376,10184,-12738,-50,82,-49,82,-132,-131,-16,-16
,1006,2018/03/15 01:41:08.77,-2357,10113,-12661,-45,85,-48,78,-130,-126,-20,-15
,1007,2018/03/15 01:41:08.79,-2413,10114,-12677,-44,81,-43,84,-125,-127,-18,-20
,1008,2018/03/15 01:41:08.81,-2443,10171,-12620,-47,80,-45,83,-127,-128,-16,-19
,1009,2018/03/15 01:41:08.83,-2491,10152,-12569,-44,79,-48,71,-123,-119,-17,-11
,1010,2018/03/15 01:41:08.85,-2428,10156,-12621,-43,82,-49,75,-125,-124,-19,-13
,1011,2018/03/15 01:41:08.87,-2426,10114,-12557,-52,78,-55,74,-130,-129,-13,-9
,1012,2018/03/15 01:41:08.89,-2448,10071,-12640,-52,75,-53,75,-127,-128,-11,-11
,1013,2018/03/15 01:41:08.91,-2450,10043,-12565,-54,72,-45,79,-126,-124,-9,-17
,1014,2018/03/15 01:41:08.93,-2442,10073,-12568,-44,78,-45,76,-122,-121,-17,-15
,1015,2018/03/15 01:41:08.95,-2441,10133,-12626,-43,76,-44,73,-119,-117,-16,-14
,1016,2018/03/15 01:41:08.97,-2458,10143,-12693,-44,78,-47,78,-122,-125,-17,-15
,1017,2018/03/15 01:41:08.99,-2381,10138,-12648,-51,77,-44,85,-128,-129,-13,-20
,1018,2018/03/15 01:41:09.01,-2497,10187,-12589,-48,81,-46,82,-129,-128,-16,-18
,1019,2018/03/15 01:41:09.03,-2422,10155,-12602,-44,80,-47,78,-124,-125,-18,-15
,1020,2018/03/15 01:41:09.05,-2435,10156,-12653,-44,85,-41,85,-129,-126,-20,-22
,1021,2018/03/15 01:41:09.07,-2352,10041,-12719,-39,86,-45,78,-125,-123,-23,-16
,1022,2018/03/15 01:41:09.09,-2452,10078,-12493,-52,72,-39,88,-124,-127,-10,-24
,1023,2018/03/15 01:41:09.11,-2466,10091,-12532,-45,81,-42,84,-126,-126,-18,-21
,1024,2018/03/15 01:41:09.13,-2440,10072,-12657,-52,74,-44,83,-126,-127,-11,-19
,1025,2018/03/15 01:41:09.15,-2417,10124,-12708,-40,86,-48,78,-126,-126,-23,-15
,1026,2018/03/15 01:41:09.17,-2362,10165,-12649,-46,81,-47,81,-127,-128,-17,-17
,1027,2018/03/15 01:41:09.19,-2393,10178,-12641,-50,80,-39,90,-130,-129,-15,-25
,1028,2018/03/15 01:41:09.21,-2393,10212,-12600,-42,83,-39,88,-125,-127,-20,-24
,1029,2018/03/15 01:41:09.23,-2487,10180,-12615,-34,91,-38,88,-125,-126,-28,-25
,1030,2018/03/15 01:41:09.25,-2407,10115,-12662,-41,92,-49,86,-133,-135,-25,-18
,1031,2018/03/15 01:41:09.27,-2345,10036,-12663,-49,84,-46,85,-133,-131,-17,-19
,1032,2018/03/15 01:41:09.29,-2406,10010,-12681,-56,74,-58,72,-130,-130,-9,-7
,1033,2018/03/15 01:41:09.31,-2352,10053,-12670,-66,58,-77,42,-124,-119,4,17
,1034,2018/03/15 01:41:09.33,-2354,9990,-12601,-94,25,-116,3,-119,-119,34,56
,1035,2018/03/15 01:41:09.35,-2505,10108,-12584,-126,-7,-130,-12,-119,-118,66,71
,1036,2018/03/15 01:41:09.37,-2379,10124,-12571,-123,-3,-108,14,-120,-122,63,47
,1037,2018/03/15 01:41:09.39,-2453,10099,-12647,-96,29,-78,53,-125,-131,33,12
,1038,2018/03/15 01:41:09.41,-2411,10188,-12665,-66,66,-55,77,-132,-132,0,-11
,1039,2018/03/15 01:41:09.43,-2410,10145,-12659,-40,91,-30,97,-131,-127,-25,-33
,1040,2018/03/15 01:41:09.45,-2349,10178,-12636,-17,105,-16,108,-122,-124,-44,-46
,1041,2018/03/15 01:41:09.47,-2377,10148,-12680,-15,111,-13,118,-126,-131,-48,-52
,1042,2018/03/15 01:41:09.49,-2386,10065,-12610,-14,116,-8,122,-130,-130,-51,-57
,1043,2018/03/15 01:41:09.51,-2379,9987,-12601,4,133,-6,121,-129,-127,-68,-57
,1044,2018/03/15 01:41:09.53,-2424,10039,-12595,-9,120,-24,102,-129,-126,-55,-39
,1045,2018/03/15 01:41:09.55,-2353,10113,-12643,-15,118,-12,121,-133,-133,-51,-54
,1046,2018/03/15 01:41:09.57,-2384,10083,-12646,-11,122,-16,120,-133,-136,-55,-52
,1047,2018/03/15 01:41:09.59,-2335,10080,-12656,-28,108,-27,105,-136,-132,-40,-39
,1048,2018/03/15 01:41:09.61,-2416,10089,-12642,-24,103,-23,100,-127,-123,-39,-38
,1049,2018/03/15 01:41:09.63,-2412,10072,-12640,-24,103,-34,97,-127,-131,-39,-31
,1050,2018/03/15 01:41:09.65,-2438,10017,-12672,-36,99,-36,97,-135,-133,-31,-30
,1051,2018/03/15 01:41:09.67,-2467,10074,-12607,-35,96,-32,99,-131,-131,-30,-33
,1052,2018/03/15 01:41:09.69,-2408,10081,-12680,-33,95,-34,96,-128,-130,-31,-31
,1053,2018/03/15 01:41:09.71,-2420,10141,-12714,-30,100,-30,96,-130,-126,-35,-33
,1054,2018/03/15 01:41:09.73,-2398,10099,-12647,-27,100,-31,99,-127,-130,-36,-34
,1055,2018/03/15 01:41:09.75,-2425,10119,-12650,-29,103,-27,103,-132,-130,-37,-38
,1056,2018/03/15 01:41:09.77,-2477,10069,-12501,-31,100,-31,105,-131,-136,-34,-37
,1057,2018/03/15 01:41:09.79,-2458,10108,-12510,-38,100,-35,102,-138,-137,-31,-33
,1058,2018/03/15 01:41:09.81,-2442,10167,-12638,-34,100,-39,93,-134,-132,-33,-27
,1059,2018/03/15 01:41:09.83,-2455,10173,-12696,-35,98,-34,96,-133,-130,-31,-31
,1060,2018/03/15 01:41:09.85,-2440,10244,-12655,-32,100,-32,103,-132,-135,-34,-35
,1061,2018/03/15 01:41:09.87,-2395,10140,-12609,-37,98,-32,100,-135,-132,-30,-34
,1062,2018/03/15 01:41:09.89,-2388,10225,-12622,-32,94,-34,91,-126,-125,-31,-28
,1063,2018/03/15 01:41:09.91,-2460,10118,-12692,-38,90,-36,97,-128,-133,-26,-30
,1064,2018/03/15 01:41:09.93,-2461,10228,-12608,-43,93,-42,91,-136,-133,-25,-24
,1065,2018/03/15 01:41:09.95,-2488,10146,-12613,-50,77,-43,90,-127,-133,-13,-23
,1066,2018/03/15 01:41:09.97,-2503,10022,-12628,-47,82,-51,77,-129,-128,-17,-13
,1067,2018/03/15 01:41:09.99,-2545,10012,-12592,-42,81,-40,82,-123,-122,-19,-21
,1068,2018/03/15 01:41:10.01,-2466,10029,-12609,-42,84,-48,80,-126,-128,-21,-16
,1069,2018/03/15 01:41:10.03,-2479,10006,-12578,-43,89,-40,89,-132,-129,-23,-24
,1070,2018/03/15 01:41:10.05,-2414,10005,-12663,-36,88,-34,92,-124,-126,-26,-29
,1071,2018/03/15 01:41:10.07,-2376,10036,-12644,-39,87,-37,92,-126,-129,-24,-27
,1072,2018/03/15 01:41:10.09,-2452,10160,-12650,-39,92,-42,91,-131,-133,-26,-24
,1073,2018/03/15 01:41:10.11,-2428,10051,-12657,-41,92,-42,87,-133,-129,-25,-22
,1074,2018/03/15 01:41:10.13,-2413,10047,-12628,-42,89,-43,89,-131,-132,-23,-23
,1075,2018/03/15 01:41:10.15,-2450,10100,-12607,-41,88,-38,95,-129,-133,-23,-28
,1076,2018/03/15 01:41:10.17,-2448,10161,-12718,-41,92,-38,96,-133,-134,-25,-29
,1077,2018/03/15 01:41:10.19,-2493,10042,-12654,-34,101,-34,101,-135,-135,-33,-33
,1078,2018/03/15 01:41:10.21,-2469,10091,-12669,-24,107,-24,106,-131,-130,-41,-41
,1079,2018/03/15 01:41:10.23,-2412,10165,-12644,-22,108,-21,105,-130,-126,-43,-42
,1080,2018/03/15 01:41:10.25,-2477,10152,-12654,-22,100,-26,100,-122,-126,-39,-37
,1081,2018/03/15 01:41:10.27,-2442,10107,-12649,-31,98,-31,100,-129,-131,-33,-34
,1082,2018/03/15 01:41:10.29,-2423,10148,-12662,-32,94,-36,86,-126,-122,-31,-25
,1083,2018/03/15 01:41:10.31,-2484,10033,-12599,-33,91,-34,89,-124,-123,-29,-27
,1084,2018/03/15 01:41:10.33,-2423,10043,-12602,-21,104,-31,95,-125,-126,-41,-32
,1085,2018/03/15 01:41:10.35,-2439,10037,-12614,-37,89,-39,85,-126,-124,-26,-23
,1086,2018/03/15 01:41:10.37,-2410,9979,-12593,-37,92,-39,90,-129,-129,-27,-25
,1087,2018/03/15 01:41:10.39,-2445,10050,-12617,-42,84,-34,91,-126,-125,-21,-28
,1088,2018/03/15 01:41:10.41,-2525,10102,-12601,-33,93,-36,91,-126,-127,-30,-27
,1089,2018/03/15 01:41:10.43,-2466,10086,-12513,-36,91,-41,88,-127,-129,-27,-23
,1090,2018/03/15 01:41:10.45,-2461,10133,-12470,-55,78,-56,76,-133,-132,-11,-10
,1091,2018/03/15 01:41:10.47,-2418,10141,-12640,-57,70,-53,70,-127,-123,-6,-8
,1092,2018/03/15 01:41:10.49,-2436,10169,-12729,-48,76,-53,76,-124,-129,-14,-11
,1093,2018/03/15 01:41:10.51,-2415,10232,-12723,-51,80,-49,80,-131,-129,-14,-15
,1094,2018/03/15 01:41:10.53,-2379,10184,-12624,-52,79,-52,79,-131,-131,-13,-13
,1095,2018/03/15 01:41:10.55,-2407,10272,-12634,-58,74,-55,80,-132,-135,-8,-12
,1096,2018/03/15 01:41:10.57,-2501,10252,-12605,-51,81,-48,79,-132,-127,-15,-15
,1097,2018/03/15 01:41:10.59,-2506,10102,-12550,-43,84,-49,81,-127,-130,-20,-16
,1098,2018/03/15 01:41:10.61,-2524,10009,-12590,-50,82,-48,82,-132,-130,-16,-17
,1099,2018/03/15 01:41:10.63,-2436,9985,-12687,-45,83,-39,92,-128,-131,-19,-26
,1100,2018/03/15 01:41:10.65,-2447,9982,-12668,-42,89,-41,88,-131,-129,-23,-23
,1101,2018/03/15 01:41:10.67,-2399,10051,-12621,-39,91,-37,92,-130,-129,-26,-27
,1102,2018/03/15 01:41:10.69,-2422,10018,-12633,-34,91,-38,82,-125,-120,-28,-22
,1103,2018/03/15 01:41:10.71,-2497,10057,-12727,-40,82,-44,81,-122,-125,-21,-18
,1104,2018/03/15 01:41:10.73,-2348,10058,-12645,-47,76,-31,91,-123,-122,-14,-30
,1105,2018/03/15 01:41:10.75,-2483,10065,-12676,-36,83,-34,87,-119,-121,-23,-26
,1106,2018/03/15 01:41:10.77,-2491,10054,-12659,-40,77,-34,86,-117,-120,-18,-26
,1107,2018/03/15 01:41:10.79,-2486,10061,-12695,-30,87,-41,73,-117,-114,-28,-16
,1108,2018/03/15 01:41:10.81,-2525,10166,-12649,-33,80,-32,84,-113,-116,-23,-26
,1109,2018/03/15 01:41:10.83,-2557,10237,-12587,-44,77,-34,88,-121,-122,-16,-27
,1110,2018/03/15 01:41:10.85,-2504,10138,-12620,-36,86,-34,87,-122,-121,-25,-26
,1111,2018/03/15 01:41:10.87,-2524,10158,-12595,-41,80,-47,75,-121,-122,-19,-14
,1112,2018/03/15 01:41:10.89,-2471,10076,-12670,-42,87,-41,92,-129,-133,-22,-25
,1113,2018/03/15 01:41:10.91,-2517,10073,-12644,-34,96,-32,96,-130,-128,-31,-32
,1114,2018/03/15 01:41:10.93,-2472,10069,-12570,-40,85,-43,84,-125,-127,-22,-20
,1115,2018/03/15 01:41:10.95,-2434,10024,-12622,-45,79,-43,83,-124,-126,-17,-20
,1116,2018/03/15 01:41:10.97,-2452,10041,-12643,-36,88,-38,86,-124,-124,-26,-24
,1117,2018/03/15 01:41:10.99,-2471,10040,-12661,-38,90,-39,89,-128,-128,-26,-25
,1118,2018/03/15 01:41:11.01,-2440,10070,-12639,-41,88,-40,88,-129,-128,-23,-24
,1119,2018/03/15 01:41:11.03,-2420,10036,-12628,-44,81,-46,82,-125,-128,-18,-18
,1120,2018/03/15 01:41:11.05,-2413,10007,-12699,-50,79,-54,76,-129,-130,-14,-11
,1121,2018/03/15 01:41:11.07,-2419,10008,-12657,-46,81,-41,82,-127,-123,-17,-20
,1122,2018/03/15 01:41:11.09,-2530,10045,-12541,-40,85,-46,81,-125,-127,-22,-17
,1123,2018/03/15 01:41:11.11,-2513,10138,-12562,-45,82,-46,85,-127,-131,-18,-19
,1124,2018/03/15 01:41:11.13,-2403,10205,-12612,-51,79,-44,84,-130,-128,-14,-20
,1125,2018/03/15 01:41:11.15,-2441,10230,-12727,-35,91,-44,78,-126,-122,-28,-17
,1126,2018/03/15 01:41:11.17,-2470,10236,-12636,-38,86,-44,73,-124,-117,-24,-14
,1127,2018/03/15 01:41:11.19,-2446,10158,-12694,-40,83,-42,81,-123,-123,-21,-19
,1128,2018/03/15 01:41:11.21,-2406,10136,-12598,-44,80,-42,81,-124,-123,-18,-19
,1129,2018/03/15 01:41:11.23,-2429,10059,-12651,-40,80,-32,87,-120,-119,-20,-27
,1130,2018/03/15 01:41:11.25,-2411,10111,-12621,-34,88,-40,83,-122,-123,-27,-21
,1131,2018/03/15 01:41:11.27,-2426,10041,-12586,-36,90,-38,88,-126,-126,-27,-25
,1132,2018/03/15 01:41:11.29,-2393,9982,-12631,-40,87,-45,82,-127,-127,-23,-18
,1133,2018/03/15 01:41:11.31,-2462,10032,-12572,-50,79,-48,86,-129,-134,-14,-19
,1134,2018/03/15 01:41:11.33,-2430,9972,-12599,-53,82,-53,83,-135,-136,-14,-15
,1135,2018/03/15 01:41:11.35,-2400,9961,-12624,-55,82,-55,80,-137,-135,-13,-12
,1136,2018/03/15 01:41:11.37,-2431,10001,-12630,-54,80,-57,74,-134,-131,-13,-8
,1137,2018/03/15 01:41:11.39,-2383,10105,-12675,-56,76,-51,77,-132,-128,-10,-13
,1138,2018/03/15 01:41:11.41,-2351,10167,-12738,-48,74,-42,80,-122,-122,-13,-19
,1139,2018/03/15 01:41:11.43,-2385,10132,-12698,-48,76,-51,74,-124,-125,-14,-11
,1140,2018/03/15 01:41:11.45,-2446,10142,-12687,-49,74,-53,72,-123,-125,-12,-9
,1141,2018/03/15 01:41:11.47,-2446,10092,-12656,-56,77,-71,64,-133,-135,-10,3
,1142,2018/03/15 01:41:11.49,-2424,10119,-12639,-74,50,-78,39,-124,-117,12,19
,1143,2018/03/15 01:41:11.51,-2475,10034,-12592,-93,22,-111,7,-115,-118,35,52
,1144,2018/03/15 01:41:11.53,-2469,10075,-12656,-131,-13,-139,-22,-118,-117,72,80
,1145,2018/03/15 01:41:11.55,-2505,10105,-12687,-139,-21,-127,-4,-118,-123,80,65
,1146,2018/03/15 01:41:11.57,-2401,10056,-12702,-118,10,-105,25,-128,-130,54,40
,1147,2018/03/15 01:41:11.59,-2428,10125,-12570,-96,29,-77,53,-125,-130,33,12
,1148,2018/03/15 01:41:11.61,-2389,10070,-12662,-66,60,-59,65,-126,-124,3,-3
,1149,2018/03/15 01:41:11.63,-2414,10083,-12644,-43,78,-41,84,-121,-125,-17,-21
,1150,2018/03/15 01:41:11.65,-2390,10063,-12569,-36,95,-31,100,-131,-131,-29,-34
,1151,2018/03/15 01:41:11.67,-2459,10065,-12588,-18,111,-6,120,-129,-126,-46,-57
,1152,2018/03/15 01:41:11.69,-2462,10051,-12641,-3,121,-8,115,-124,-123,-59,-53
,1153,2018/03/15 01:41:11.71,-2425,10035,-12708,-14,107,-6,121,-121,-127,-46,-57
,1154,2018/03/15 01:41:11.73,-2462,10042,-12666,-9,118,-13,112,-127,-125,-54,-49
,1155,2018/03/15 01:41:11.75,-2401,9986,-12575,-11,115,-14,109,-126,-123,-52,-47
,1156,2018/03/15 01:41:11.77,-2448,10051,-12602,-14,110,-17,109,-124,-126,-48,-46
,1157,2018/03/15 01:41:11.79,-2476,10063,-12663,-19,110,-14,117,-129,-131,-45,-51
,1158,2018/03/15 01:41:11.81,-2435,10152,-12792,-19,110,-24,104,-129,-128,-45,-40
,1159,2018/03/15 01:41:11.83,-2495,10189,-12667,-32,96,-40,91,-128,-131,-32,-25
,1160,2018/03/15 01:41:11.85,-2442,10140,-12622,-39,96,-38,93,-135,-131,-28,-27
,1161,2018/03/15 01:41:11.87,-2398,10078,-12610,-31,96,-28,98,-127,-126,-32,-35
,1162,2018/03/15 01:41:11.89,-2424,10042,-12662,-30,95,-31,98,-125,-129,-32,-33
,1163,2018/03/15 01:41:11.91,-2427,10053,-12668,-39,91,-39,89,-130,-128,-26,-25
,1164,2018/03/15 01:41:11.93,-2414,10028,-12628,-36,91,-37,91,-127,-128,-27,-27
,1165,2018/03/15 01:41:11.95,-2431,10017,-12654,-38,94,-41,90,-132,-131,-28,-24
,1166,2018/03/15 01:41:11.97,-2423,10027,-12651,-31,100,-36,89,-131,-125,-34,-26
,1167,2018/03/15 01:41:11.99,-2515,10072,-12672,-37,82,-31,85,-119,-116,-22,-27
,1168,2018/03/15 01:41:12.01,-2441,10033,-12534,-36,88,-40,86,-124,-126,-26,-23
,1169,2018/03/15 01:41:12.03,-2452,10098,-12691,-48,77,-45,83,-125,-128,-14,-19
,1170,2018/03/15 01:41:12.05,-2487,10149,-12680,-43,87,-43,85,-130,-128,-22,-21
,1171,2018/03/15 01:41:12.07,-2384,10127,-12697,-39,89,-35,90,-128,-125,-25,-27
,1172,2018/03/15 01:41:12.09,-2390,10071,-12760,-38,84,-35,86,-122,-121,-23,-25
,1173,2018/03/15 01:41:12.11,-2411,10069,-12660,-36,83,-40,83,-119,-123,-23,-21
,1174,2018/03/15 01:41:12.13,-2358,10063,-12653,-40,82,-45,82,-122,-127,-21,-18
,1175,2018/03/15 01:41:12.15,-2418,10046,-12667,-40,90,-41,89,-130,-130,-25,-24
,1176,2018/03/15 01:41:12.17,-2445,10036,-12700,-42,81,-36,92,-123,-128,-19,-28
,1177,2018/03/15 01:41:12.19,-2426,10021,-12645,-39,94,-34,101,-133,-135,-27,-33
,1178,2018/03/15 01:41:12.21,-2421,10051,-12608,-32,96,-33,91,-128,-124,-32,-29
,1179,2018/03/15 01:41:12.23,-2353,10011,-12695,-43,84,-46,81,-127,-127,-20,-17
,1180,2018/03/15 01:41:12.25,-2298,10041,-12646,-34,92,-35,86,-126,-121,-29,-25
,1181,2018/03/15 01:41:12.27,-2426,9999,-12650,-38,83,-34,89,-121,-123,-22,-27
,1182,2018/03/15 01:41:12.29,-2343,10039,-12619,-38,88,-43,88,-126,-131,-25,-22
,1183,2018/03/15 01:41:12.31,-2408,10034,-12651,-47,87,-44,87,-134,-131,-20,-21
,1184,2018/03/15 01:41:12.33,-2388,10101,-12693,-40,94,-39,94,-134,-133,-27,-27
,1185,2018/03/15 01:41:12.35,-2376,10134,-12689,-36,93,-42,89,-129,-131,-28,-23
,1186,2018/03/15 01:41:12.37,-2465,10029,-12702,-46,86,-33,98,-132,-131,-20,-32
,1187,2018/03/15 01:41:12.39,-2469,10049,-12564,-34,89,-31,92,-123,-123,-27,-30
,1188,2018/03/15 01:41:12.41,-2417,10088,-12575,-28,90,-29,90,-118,-119,-31,-30
,1189,2018/03/15 01:41:12.43,-2413,10106,-12684,-28,92,-40,77,-120,-117,-32,-18
,1190,2018/03/15 01:41:12.45,-2396,10152,-12676,-35,85,-33,87,-120,-120,-25,-27
,1191,2018/03/15 01:41:12.47,-2444,10169,-12644,-43,75,-32,89,-118,-121,-16,-28
,1192,2018/03/15 01:41:12.49,-2382,10132,-12616,-34,84,-39,83,-118,-122,-25,-22
,1193,2018/03/15 01:41:12.51,-2450,10130,-12621,-40,83,-37,85,-123,-122,-21,-24
,1194,2018/03/15 01:41:12.53,-2374,10098,-12613,-32,90,-35,86,-122,-121,-29,-25
,1195,2018/03/15 01:41:12.55,-2382,9973,-12708,-38,87,-38,92,-125,-130,-24,-27
,1196,2018/03/15 01:41:12.57,-2383,10018,-12639,-40,87,-38,90,-127,-128,-23,-26
,1197,2018/03/15 01:41:12.59,-2440,9945,-12655,-39,87,-39,86,-126,-125,-24,-23
,1198,2018/03/15 01:41:12.61,-2412,9964,-12611,-40,88,-45,83,-128,-128,-24,-19
,1199,2018/03/15 01:41:12.63,-2332,10038,-12597,-40,87,-39,82,-127,-121,-23,-21
,1200,2018/03/15 01:41:12.65,-2406,10078,-12606,-37,83,-39,87,-120,-126,-23,-24
,1201,2018/03/15 01:41:12.67,-2414,10188,-12622,-46,82,-43,85,-128,-128,-18,-21
,1202,2018/03/15 01:41:12.69,-2414,10159,-12717,-39,82,-35,84,-121,-119,-21,-24
,1203,2018/03/15 01:41:12.71,-2412,10087,-12649,-32,87,-32,85,-119,-117,-27,-26
,1204,2018/03/15 01:41:12.73,-2483,10129,-12722,-30,90,-34,84,-120,-118,-30,-25
,1205,2018/03/15 01:41:12.75,-2490,10063,-12663,-37,81,-34,85,-118,-119,-22,-25
,1206,2018/03/15 01:41:12.77,-2470,10047,-12633,-36,80,-36,81,-116,-117,-22,-22
,1207,2018/03/15 01:41:12.79,-2530,10063,-12587,-36,88,-39,85,-124,-124,-26,-23
,1208,2018/03/15 01:41:12.81,-2537,10049,-12677,-39,89,-41,81,-128,-122,-25,-20
,1209,2018/03/15 01:41:12.83,-2395,10047,-12657,-42,85,-40,86,-127,-126,-21,-23
,1210,2018/03/15 01:41:12.85,-2388,10053,-12664,-43,82,-40,85,-125,-125,-19,-22
,1211,2018/03/15 01:41:12.87,-2382,10030,-12642,-46,78,-44,78,-124,-122,-16,-17
,1212,2018/03/15 01:41:12.89,-2446,10059,-12629,-40,79,-36,85,-119,-121,-19,-24
,1213,2018/03/15 01:41:12.91,-2418,10051,-12609,-36,91,-43,84,-127,-127,-27,-20
,1214,2018/03/15 01:41:12.93,-2356,10077,-12676,-42,83,-42,79,-125,-121,-20,-18
,1215,2018/03/15 01:41:12.95,-2357,10114,-12686,-43,78,-44,87,-121,-131,-17,-21
,1216,2018/03/15 01:41:12.97,-2412,10096,-12692,-47,86,-46,89,-133,-135,-19,-21
,1217,2018/03/15 01:41:12.99,-2383,10133,-12695,-40,92,-39,91,-132,-130,-26,-26
,1218,2018/03/15 01:41:13.01,-2409,10094,-12714,-39,92,-41,88,-131,-129,-26,-23
,1219,2018/03/15 01:41:13.03,-2343,10080,-12507,-40,90,-39,91,-130,-130,-25,-26
,1220,2018/03/15 01:41:13.05,-2340,10058,-12578,-43,84,-42,87,-127,-129,-20,-22
,1221,2018/03/15 01:41:13.07,-2449,10131,-12692,-44,82,-40,85,-126,-125,-19,-22
,1222,2018/03/15 01:41:13.09,-2369,10138,-12718,-38,87,-41,84,-125,-125,-24,-21
,1223,2018/03/15 01:41:13.11,-2424,10147,-12644,-38,89,-40,84,-127,-124,-25,-22
,1224,2018/03/15 01:41:13.13,-2464,10133,-12659,-43,82,-45,84,-125,-129,-19,-19
,1225,2018/03/15 01:41:13.15,-2445,10152,-12678,-48,86,-43,91,-134,-134,-19,-24
,1226,2018/03/15 01:41:13.17,-2501,10064,-12607,-42,88,-42,88,-130,-130,-23,-23
,1227,2018/03/15 01:41:13.19,-2412,9999,-12683,-41,91,-44,93,-132,-137,-25,-24
,1228,2018/03/15 01:41:13.21,-2375,10022,-12582,-44,93,-44,89,-137,-133,-24,-22
,1229,2018/03/15 01:41:13.23,-2372,9993,-12653,-37,91,-41,90,-128,-131,-27,-24
,1230,2018/03/15 01:41:13.25,-2317,10016,-12652,-47,83,-55,78,-130,-133,-18,-11
,1231,2018/03/15 01:41:13.27,-2394,10005,-12633,-60,73,-65,66,-133,-131,-6,0
,1232,2018/03/15 01:41:13.29,-2375,9984,-12589,-67,58,-82,36,-125,-118,4,23
,1233,2018/03/15 01:41:13.31,-2320,10121,-12677,-97,19,-111,7,-116,-118,39,52
,1234,2018/03/15 01:41:13.33,-2381,10088,-12704,-120,0,-125,-3,-120,-122,60,64
,1235,2018/03/15 01:41:13.35,-2336,10136,-12732,-129,-5,-128,4,-124,-132,67,62
,1236,2018/03/15 01:41:13.37,-2358,10138,-12690,-125,10,-112,22,-135,-134,57,45
,1237,2018/03/15 01:41:13.39,-2420,10187,-12735,-96,39,-87,45,-135,-132,28,21
,1238,2018/03/15 01:41:13.41,-2358,10165,-12685,-76,55,-64,66,-131,-130,10,-1
,1239,2018/03/15 01:41:13.43,-2415,10186,-12663,-54,74,-40,87,-128,-127,-10,-23
,1240,2018/03/15 01:41:13.45,-2347,10122,-12638,-34,93,-28,102,-127,-130,-29,-37
,1241,2018/03/15 01:41:13.47,-2368,10105,-12681,-26,103,-23,103,-129,-126,-38,-40
,1242,2018/03/15 01:41:13.49,-2445,10039,-12662,-14,112,-14,111,-126,-125,-49,-48
,1243,2018/03/15 01:41:13.51,-2407,10020,-12593,-12,113,-12,111,-125,-123,-50,-49
,1244,2018/03/15 01:41:13.53,-2422,10001,-12619,-18,106,-21,107,-124,-128,-44,-43
,1245,2018/03/15 01:41:13.55,-2440,10049,-12617,-25,104,-19,112,-129,-131,-39,-46
,1246,2018/03/15 01:41:13.57,-2431,10073,-12607,-16,116,-17,110,-132,-127,-50,-46
,1247,2018/03/15 01:41:13.59,-2429,10082,-12657,-11,113,-12,110,-124,-122,-51,-49
,1248,2018/03/15 01:41:13.61,-2429,10168,-12694,-20,112,-18,108,-132,-126,-46,-45
,1249,2018/03/15 01:41:13.63,-2374,10049,-12611,-19,107,-11,111,-126,-122,-44,-50
,1250,2018/03/15 01:41:13.65,-2480,10039,-12581,-20,101,-26,101,-121,-127,-40,-37
,1251,2018/03/15 01:41:13.67,-2579,10130,-12595,-33,96,-30,97,-129,-127,-31,-33
,1252,2018/03/15 01:41:13.69,-2518,10166,-12589,-24,102,-22,102,-126,-124,-39,-40
,1253,2018/03/15 01:41:13.71,-2470,10201,-12682,-29,99,-31,98,-128,-129,-35,-33
,1254,2018/03/15 01:41:13.73,-2436,10213,-12704,-32,94,-27,99,-126,-126,-31,-36
,1255,2018/03/15 01:41:13.75,-2451,10208,-12700,-26,97,-32,95,-123,-127,-35,-31
,1256,2018/03/15 01:41:13.77,-2355,10164,-12664,-34,98,-36,94,-132,-130,-32,-29
,1257,2018/03/15 01:41:13.79,-2423,10180,-12710,-30,99,-31,98,-129,-129,-34,-33
,1258,2018/03/15 01:41:13.81,-2349,10038,-12705,-32,97,-30,101,-129,-131,-32,-35
,1259,2018/03/15 01:41:13.83,-2452,9987,-12669,-33,98,-34,102,-131,-136,-32,-34
,1260,2018/03/15 01:41:13.85,-2385,9975,-12654,-34,100,-40,96,-134,-136,-33,-28
,1261,2018/03/15 01:41:13.87,-2513,9970,-12629,-43,95,-47,90,-138,-137,-26,-21
,1262,2018/03/15 01:41:13.89,-2437,9952,-12605,-43,94,-37,96,-137,-133,-25,-29
,1263,2018/03/15 01:41:13.91,-2395,9926,-12630,-36,93,-34,96,-129,-130,-28,-31
,1264,2018/03/15 01:41:13.93,-2497,10033,-12639,-38,94,-39,97,-132,-136,-28,-29
,1265,2018/03/15 01:41:13.95,-2431,10032,-12679,-43,92,-47,87,-135,-134,-24,-20
,1266,2018/03/15 01:41:13.97,-2393,10077,-12709,-45,90,-44,87,-135,-131,-22,-21
,1267,2018/03/15 01:41:13.99,-2427,10076,-12696,-42,90,-45,88,-132,-133,-24,-21
,1268,2018/03/15 01:41:14.01,-2397,10074,-12688,-47,86,-41,94,-133,-135,-19,-26
,1269,2018/03/15 01:41:14.03,-2512,10016,-12627,-44,85,-41,87,-129,-128,-20,-23
,1270,2018/03/15 01:41:14.05,-2466,10097,-12679,-36,87,-41,85,-123,-126,-25,-22
,1271,2018/03/15 01:41:14.07,-2514,10065,-12651,-42,88,-52,78,-130,-130,-23,-13
,1272,2018/03/15 01:41:14.09,-2478,10054,-12695,-45,86,-42,87,-131,-129,-20,-22
,1273,2018/03/15 01:41:14.11,-2524,10045,-12645,-40,87,-38,91,-127,-129,-23,-26
,1274,2018/03/15 01:41:14.13,-2449,10080,-12708,-39,88,-34,93,-127,-127,-24,-29
,1275,2018/03/15 01:41:14.15,-2424,10081,-12670,-35,90,-40,83,-125,-123,-27,-21
,1276,2018/03/15 01:41:14.17,-2381,10079,-12677,-38,88,-39,87,-126,-126,-25,-24
,1277,2018/03/15 01:41:14.19,-2420,10046,-12661,-40,84,-38,87,-124,-125,-22,-24
,1278,2018/03/15 01:41:14.21,-2368,9970,-12675,-38,91,-34,95,-129,-129,-26,-30
,1279,2018/03/15 01:41:14.23,-2432,10010,-12712,-37,88,-35,92,-125,-127,-25,-28
,1280,2018/03/15 01:41:14.25,-2468,10039,-12754,-34,94,-34,94,-128,-128,-30,-30
,1281,2018/03/15 01:41:14.27,-2466,9981,-12663,-27,101,-26,98,-128,-124,-37,-36
,1282,2018/03/15 01:41:14.29,-2478,10023,-12627,-32,93,-38,91,-125,-129,-30,-26
,1283,2018/03/15 01:41:14.31,-2431,10083,-12603,-39,90,-33,97,-129,-130,-25,-32
,1284,2018/03/15 01:41:14.33,-2492,10139,-12735,-33,96,-35,94,-129,-129,-31,-29
,1285,2018/03/15 01:41:14.35,-2430,10080,-12755,-36,93,-39,90,-129,-129,-28,-25
,1286,2018/03/15 01:41:14.37,-2346,10172,-12706,-34,96,-32,94,-130,-126,-31,-31
,1287,2018/03/15 01:41:14.39,-2405,10139,-12673,-35,92,-32,97,-127,-129,-28,-32
,1288,2018/03/15 01:41:14.41,-2409,10084,-12697,-32,97,-30,97,-129,-127,-32,-33
,1289,2018/03/15 01:41:14.43,-2459,10084,-12684,-33,95,-37,86,-128,-123,-31,-24
,1290,2018/03/15 01:41:14.45,-2431,10031,-12653,-37,88,-35,88,-125,-123,-25,-26
,1291,2018/03/15 01:41:14.47,-2479,10050,-12592,-41,91,-44,89,-132,-133,-25,-22
,1292,2018/03/15 01:41:14.49,-2523,9984,-12720,-44,88,-38,93,-132,-131,-22,-27
,1293,2018/03/15 01:41:14.51,-2412,9989,-12615,-41,89,-39,93,-130,-132,-24,-27
,1294,2018/03/15 01:41:14.53,-2447,9962,-12640,-41,90,-44,87,-131,-131,-24,-21
,1295,2018/03/15 01:41:14.55,-2362,9967,-12601,-43,89,-44,86,-132,-130,-23,-21
,1296,2018/03/15 01:41:14.57,-2370,10009,-12680,-44,86,-45,84,-130,-129,-21,-19
,1297,2018/03/15 01:41:14.59,-2444,10093,-12682,-46,83,-40,91,-129,-131,-18,-25
,1298,2018/03/15 01:41:14.61,-2421,10122,-12717,-41,89,-40,91,-130,-131,-24,-25
,1299,2018/03/15 01:41:14.63,-2423,10105,-12725,-44,88,-45,84,-132,-129,-22,-19
,1300,2018/03/15 01:41:14.65,-2411,10106,-12669,-42,88,-41,88,-130,-129,-23,-23
,1301,2018/03/15 01:41:14.67,-2375,10015,-12605,-41,93,-41,90,-134,-131,-26,-24
,1302,2018/03/15 01:41:14.69,-2417,10072,-12667,-42,85,-38,89,-127,-127,-21,-25
,1303,2018/03/15 01:41:14.71,-2450,10016,-12746,-39,86,-39,87,-125,-126,-23,-24
,1304,2018/03/15 01:41:14.73,-2451,10056,-12715,-40,85,-40,87,-125,-127,-22,-23
,1305,2018/03/15 01:41:14.75,-2434,10006,-12612,-40,90,-44,82,-130,-126,-25,-19
,1306,2018/03/15 01:41:14.77,-2418,10048,-12594,-41,81,-37,86,-122,-123,-20,-24
,1307,2018/03/15 01:41:14.79,-2376,10029,-12620,-41,86,-39,92,-127,-131,-22,-26
,1308,2018/03/15 01:41:14.81,-2418,10029,-12654,-37,90,-39,90,-127,-129,-26,-25
,1309,2018/03/15 01:41:14.83,-2445,10033,-12662,-38,94,-43,94,-132,-137,-28,-25
,1310,2018/03/15 01:41:14.85,-2494,10080,-12719,-34,89,-38,84,-123,-122,-27,-23
,1311,2018/03/15 01:41:14.87,-2422,10074,-12666,-35,89,-40,89,-124,-129,-27,-24
,1312,2018/03/15 01:41:14.89,-2504,10006,-12695,-41,86,-43,85,-127,-128,-22,-21
,1313,2018/03/15 01:41:14.91,-2474,10045,-12529,-41,86,-42,83,-127,-125,-22,-20
,1314,2018/03/15 01:41:14.93,-2486,10148,-12583,-37,88,-39,85,-125,-124,-25,-23
,1315,2018/03/15 01:41:14.95,-2441,10162,-12765,-38,88,-40,90,-126,-130,-25,-25
,1316,2018/03/15 01:41:14.97,-2434,10169,-12757,-45,90,-47,90,-135,-137,-22,-21
,1317,2018/03/15 01:41:14.99,-2383,10084,-12710,-50,85,-45,91,-135,-136,-17,-23
,1318,2018/03/15 01:41:15.01,-2415,10121,-12676,-42,93,-40,97,-135,-137,-25,-28
,1319,2018/03/15 01:41:15.03,-2358,10051,-12689,-38,99,-41,91,-137,-132,-30,-25
,1320,2018/03/15 01:41:15.05,-2415,9988,-12665,-41,94,-44,92,-135,-136,-26,-24
,1321,2018/03/15 01:41:15.07,-2491,10011,-12685,-45,91,-41,98,-136,-139,-23,-28
,1322,2018/03/15 01:41:15.09,-2504,10020,-12694,-48,91,-47,92,-139,-139,-21,-22
,1323,2018/03/15 01:41:15.11,-2479,10002,-12683,-45,91,-43,89,-136,-132,-23,-23
,1324,2018/03/15 01:41:15.13,-2503,9984,-12643,-41,91,-43,90,-132,-133,-25,-23
,1325,2018/03/15 01:41:15.15,-2477,9954,-12630,-42,92,-41,94,-134,-135,-25,-26
,1326,2018/03/15 01:41:15.17,-2420,10002,-12650,-44,89,-39,91,-133,-130,-22,-26
,1327,2018/03/15 01:41:15.19,-2421,10014,-12665,-40,85,-38,90,-125,-128,-22,-26
,1328,2018/03/15 01:41:15.21,-2439,10128,-12655,-38,93,-41,86,-131,-127,-27,-22
,1329,2018/03/15 01:41:15.23,-2417,10115,-12723,-43,88,-44,86,-131,-130,-22,-21
,1330,2018/03/15 01:41:15.25,-2459,10118,-12685,-48,89,-41,93,-137,-134,-20,-26
,1331,2018/03/15 01:41:15.27,-2476,10072,-12708,-45,87,-37,93,-132,-130,-21,-28
,1332,2018/03/15 01:41:15.29,-2403,10037,-12670,-43,88,-42,87,-131,-129,-22,-22
,1333,2018/03/15 01:41:15.31,-2435,10031,-12647,-44,83,-42,86,-127,-128,-19,-22
,1334,2018/03/15 01:41:15.33,-2507,10064,-12611,-42,88,-48,75,-130,-123,-23,-13
,1335,2018/03/15 01:41:15.35,-2398,10078,-12677,-41,85,-42,88,-126,-130,-22,-23
,1336,2018/03/15 01:41:15.37,-2476,10060,-12691,-46,86,-44,89,-132,-133,-20,-22
,1337,2018/03/15 01:41:15.39,-2315,10050,-12623,-47,86,-44,88,-133,-132,-19,-22
,1338,2018/03/15 01:41:15.41,-2422,10117,-12646,-47,89,-51,87,-136,-138,-21,-18
,1339,2018/03/15 01:41:15.43,-2382,10128,-12683,-46,94,-46,95,-140,-141,-24,-24
,1340,2018/03/15 01:41:15.45,-2401,10058,-12634,-46,95,-41,96,-141,-137,-24,-27
,1341,2018/03/15 01:41:15.47,-2382,10011,-12719,-45,91,-45,92,-136,-137,-23,-23
,1342,2018/03/15 01:41:15.49,-2459,10063,-12695,-44,91,-44,92,-135,-136,-23,-24
,1343,2018/03/15 01:41:15.51,-2505,10125,-12644,-44,93,-48,86,-137,-134,-24,-19
,1344,2018/03/15 01:41:15.53,-2489,10126,-12683,-43,87,-44,85,-130,-129,-22,-20
,1345,2018/03/15 01:41:15.55,-2496,10147,-12520,-43,85,-42,86,-128,-128,-21,-22
,1346,2018/03/15 01:41:15.57,-2500,10141,-12587,-41,83,-36,91,-124,-127,-21,-27
,1347,2018/03/15 01:41:15.59,-2480,10187,-12667,-37,95,-42,93,-132,-135,-29,-25
,1348,2018/03/15 01:41:15.61,-2441,10259,-12703,-44,95,-47,86,-139,-133,-25,-19
,1349,2018/03/15 01:41:15.63,-2545,10246,-12736,-42,87,-43,87,-129,-130,-22,-22
,1350,2018/03/15 01:41:15.65,-2355,10200,-12689,-43,87,-50,87,-130,-137,-22,-18
,1351,2018/03/15 01:41:15.67,-2416,10175,-12659,-44,92,-45,92,-136,-137,-24,-23
,1352,2018/03/15 01:41:15.69,-2406,10017,-12633,-42,94,-45,88,-136,-133,-26,-21
,1353,2018/03/15 01:41:15.71,-2419,10012,-12603,-38,94,-40,88,-132,-128,-28,-24
,1354,2018/03/15 01:41:15.73,-2404,9861,-12708,-35,96,-38,92,-131,-130,-30,-27
,1355,2018/03/15 01:41:15.75,-2319,9834,-12634,-44,88,-44,89,-132,-133,-22,-22
,1356,2018/03/15 01:41:15.77,-2299,9902,-12673,-39,91,-38,90,-130,-128,-26,-26
,1357,2018/03/15 01:41:15.79,-2411,9908,-12630,-40,90,-46,87,-130,-133,-25,-20
,1358,2018/03/15 01:41:15.81,-2372,10036,-12693,-48,86,-50,79,-134,-129,-19,-14
,1359,2018/03/15 01:41:15.83,-2329,10105,-12682,-44,81,-37,87,-125,-124,-18,-25
,1360,2018/03/15 01:41:15.85,-2368,10090,-12763,-36,88,-36,92,-124,-128,-26,-28
,1361,2018/03/15 01:41:15.87,-2393,10139,-12725,-41,86,-42,85,-127,-127,-22,-21
,1362,2018/03/15 01:41:15.89,-2405,10116,-12701,-37,85,-38,82,-122,-120,-24,-22
,1363,2018/03/15 01:41:15.91,-2461,10065,-12696,-38,86,-43,83,-124,-126,-24,-20
,1364,2018/03/15 01:41:15.93,-2422,10126,-12705,-41,82,-40,83,-123,-123,-20,-21
,1365,2018/03/15 01:41:15.95,-2461,10078,-12668,-43,83,-44,88,-126,-132,-20,-22
,1366,2018/03/15 01:41:15.97,-2465,10066,-12696,-48,80,-46,80,-128,-126,-16,-17
,1367,2018/03/15 01:41:15.99,-2476,10006,-12668,-45,82,-49,78,-127,-127,-18,-14
,1368,2018/03/15 01:41:16.01,-2468,9994,-12652,-44,85,-41,86,-129,-127,-20,-22
,1369,2018/03/15 01:41:16.03,-2424,9972,-12657,-39,87,-32,91,-126,-123,-24,-29
,1370,2018/03/15 01:41:16.05,-2513,9908,-12650,-42,82,-44,85,-124,-129,-20,-20
,1371,2018/03/15 01:41:16.07,-2356,9948,-12679,-60,72,-48,82,-132,-130,-6,-17
,1372,2018/03/15 01:41:16.09,-2351,10004,-12689,-43,90,-42,93,-133,-135,-23,-25
,1373,2018/03/15 01:41:16.11,-2356,10019,-12702,-44,88,-40,86,-132,-126,-22,-23
,1374,2018/03/15 01:41:16.13,-2417,10076,-12725,-31,91,-36,87,-122,-123,-30,-25
,1375,2018/03/15 01:41:16.15,-2397,10024,-12748,-40,83,-44,82,-123,-126,-21,-19
,1376,2018/03/15 01:41:16.17,-2410,9943,-12777,-42,90,-44,90,-132,-134,-24,-23
,1377,2018/03/15 01:41:16.19,-2518,9996,-12621,-43,94,-48,86,-137,-134,-25,-19
,1378,2018/03/15 01:41:16.21,-2398,10021,-12634,-48,85,-49,86,-133,-135,-18,-18
,1379,2018/03/15 01:41:16.23,-2347,10111,-12751,-48,86,-43,92,-134,-135,-19,-24
,1380,2018/03/15 01:41:16.25,-2401,10128,-12773,-46,88,-46,88,-134,-134,-21,-21
,1381,2018/03/15 01:41:16.27,-2390,10222,-12680,-48,86,-48,87,-134,-135,-19,-19
,1382,2018/03/15 01:41:16.29,-2426,10107,-12689,-44,92,-46,84,-136,-130,-24,-19
,1383,2018/03/15 01:41:16.31,-2454,10069,-12690,-44,86,-44,88,-130,-132,-21,-22
,1384,2018/03/15 01:41:16.33,-2387,10014,-12660,-47,86,-44,89,-133,-133,-19,-22
,1385,2018/03/15 01:41:16.35,-2400,9964,-12729,-44,85,-44,85,-129,-129,-20,-20
,1386,2018/03/15 01:41:16.37,-2402,9931,-12644,-46,86,-47,85,-132,-132,-20,-19
,1387,2018/03/15 01:41:16.39,-2405,9870,-12690,-42,88,-44,85,-130,-129,-23,-20
,1388,2018/03/15 01:41:16.41,-2387,9908,-12617,-44,88,-44,88,-132,-132,-22,-22
,1389,2018/03/15 01:41:16.43,-2442,9869,-12685,-45,85,-45,86,-130,-131,-20,-20
,1390,2018/03/15 01:41:16.45,-2401,9949,-12616,-43,87,-49,83,-130,-132,-22,-17
,1391,2018/03/15 01:41:16.47,-2431,9985,-12682,-44,85,-57,68,-129,-125,-20,-5
,1392,2018/03/15 01:41:16.49,-2351,10097,-12813,-44,78,-43,75,-122,-118,-17,-16
,1393,2018/03/15 01:41:16.51,-2416,10123,-12806,-37,80,-35,84,-117,-119,-21,-24
,1394,2018/03/15 01:41:16.53,-2372,10113,-12734,-41,80,-44,80,-121,-124,-19,-18
,1395,2018/03/15 01:41:16.55,-2447,10117,-12672,-44,80,-42,78,-124,-120,-18,-18
,1396,2018/03/15 01:41:16.57,-2435,10068,-12668,-42,80,-44,77,-122,-121,-19,-16
,1397,2018/03/15 01:41:16.59,-2405,10048,-12641,-41,84,-43,83,-125,-126,-21,-20
,1398,2018/03/15 01:41:16.61,-2393,10019,-12711,-47,81,-44,85,-128,-129,-17,-20
,1399,2018/03/15 01:41:16.63,-2401,10032,-12659,-45,81,-45,82,-126,-127,-18,-18
,1400,2018/03/15 01:41:16.65,-2419,9972,-12658,-52,75,-62,64,-127,-126,-11,-1
,1401,2018/03/15 01:41:16.67,-2253,9948,-12660,-68,55,-75,40,-123,-115,6,17
,1402,2018/03/15 01:41:16.69,-2364,9959,-12717,-86,29,-101,15,-115,-116,28,43
,1403,2018/03/15 01:41:16.71,-2355,10045,-12716,-113,5,-116,3,-118,-119,54,56
,1404,2018/03/15 01:41:16.73,-2314,10018,-12754,-118,1,-115,8,-119,-123,58,53
,1405,2018/03/15 01:41:16.75,-2383,10064,-12642,-111,13,-106,23,-124,-129,49,41
,1406,2018/03/15 01:41:16.77,-2311,10130,-12662,-95,38,-86,46,-133,-132,28,20
,1407,2018/03/15 01:41:16.79,-2374,10133,-12787,-71,60,-62,71,-131,-133,5,-4
,1408,2018/03/15 01:41:16.81,-2373,10094,-12778,-57,74,-45,83,-131,-128,-8,-19
,1409,2018/03/15 01:41:16.83,-2442,10089,-12574,-34,87,-28,98,-121,-126,-26,-35
,1410,2018/03/15 01:41:16.85,-2387,10102,-12519,-31,102,-22,110,-133,-132,-35,-44
,1411,2018/03/15 01:41:16.87,-2399,10086,-12703,-21,111,-18,109,-132,-127,-45,-45
,1412,2018/03/15 01:41:16.89,-2358,10113,-12782,-26,99,-11,113,-125,-124,-36,-51
,1413,2018/03/15 01:41:16.91,-2376,10068,-12776,-16,110,-18,113,-126,-131,-47,-47
,1414,2018/03/15 01:41:16.93,-2400,10098,-12680,-16,112,-18,113,-128,-131,-48,-47
,1415,2018/03/15 01:41:16.95,-2381,9993,-12684,-21,112,-20,114,-133,-134,-45,-47
,1416,2018/03/15 01:41:16.97,-2427,9937,-12644,-16,119,-20,113,-135,-133,-51,-46
,1417,2018/03/15 01:41:16.99,-2400,9921,-12695,-28,108,-31,108,-136,-139,-40,-38
,1418,2018/03/15 01:41:17.01,-2317,10038,-12671,-31,106,-23,114,-137,-137,-37,-45
,1419,2018/03/15 01:41:17.03,-2455,9981,-12668,-22,113,-21,113,-135,-134,-45,-46
,1420,2018/03/15 01:41:17.05,-2334,10002,-12719,-24,111,-29,105,-135,-134,-43,-38
,1421,2018/03/15 01:41:17.07,-2376,9992,-12668,-24,107,-24,104,-131,-128,-41,-40
,1422,2018/03/15 01:41:17.09,-2415,9912,-12638,-23,105,-23,106,-128,-129,-41,-41
,1423,2018/03/15 01:41:17.11,-2414,9978,-12680,-26,99,-25,101,-125,-126,-36,-38
,1424,2018/03/15 01:41:17.13,-2421,10073,-12725,-28,98,-29,101,-126,-130,-35,-36
,1425,2018/03/15 01:41:17.15,-2391,10108,-12723,-29,101,-35,95,-130,-130,-36,-30
,1426,2018/03/15 01:41:17.17,-2353,10127,-12738,-35,97,-41,94,-132,-135,-31,-26
,1427,2018/03/15 01:41:17.19,-2343,10155,-12730,-44,93,-43,95,-137,-138,-24,-26
,1428,2018/03/15 01:41:17.21,-2446,10167,-12662,-44,91,-39,96,-135,-135,-23,-28
,1429,2018/03/15 01:41:17.23,-2414,10117,-12681,-40,97,-41,95,-137,-136,-28,-27
,1430,2018/03/15 01:41:17.25,-2485,10026,-12680,-40,96,-39,96,-136,-135,-28,-28
,1431,2018/03/15 01:41:17.27,-2498,10037,-12653,-32,101,-39,94,-133,-133,-34,-27
,1432,2018/03/15 01:41:17.29,-2451,10068,-12652,-41,91,-52,83,-132,-135,-25,-15
,1433,2018/03/15 01:41:17.31,-2441,10033,-12682,-43,92,-37,96,-135,-133,-24,-29
,1434,2018/03/15 01:41:17.33,-2461,10066,-12623,-36,101,-42,91,-137,-133,-32,-24
,1435,2018/03/15 01:41:17.35,-2406,10055,-12597,-40,90,-39,84,-130,-123,-25,-22
,1436,2018/03/15 01:41:17.37,-2356,10135,-12655,-34,87,-36,85,-121,-121,-26,-24
,1437,2018/03/15 01:41:17.39,-2378,10112,-12685,-31,93,-36,92,-124,-128,-31,-28
,1438,2018/03/15 01:41:17.41,-2476,10091,-12607,-40,87,-38,89,-127,-127,-23,-25
,1439,2018/03/15 01:41:17.43,-2421,10099,-12626,-37,91,-36,88,-128,-124,-27,-26
,1440,2018/03/15 01:41:17.45,-2432,10058,-12705,-32,90,-33,86,-122,-119,-29,-26
,1441,2018/03/15 01:41:17.47,-2438,10032,-12694,-31,89,-31,90,-120,-121,-29,-29
,1442,2018/03/15 01:41:17.49,-2460,10014,-12553,-39,81,-36,87,-120,-123,-21,-25
,1443,2018/03/15 01:41:17.51,-2459,10081,-12538,-35,86,-31,88,-121,-119,-25,-28
,1444,2018/03/15 01:41:17.53,-2394,10123,-12670,-30,88,-38,82,-118,-120,-29,-22
,1445,2018/03/15 01:41:17.55,-2392,10142,-12709,-38,85,-39,81,-123,-120,-23,-21
,1446,2018/03/15 01:41:17.57,-2337,10130,-12694,-39,82,-34,84,-121,-118,-21,-25
,1447,2018/03/15 01:41:17.59,-2416,10138,-12693,-36,81,-36,85,-117,-121,-22,-24
,1448,2018/03/15 01:41:17.61,-2391,10037,-12682,-41,82,-44,82,-123,-126,-20,-19
,1449,2018/03/15 01:41:17.63,-2392,10066,-12651,-45,85,-46,79,-130,-125,-20,-16
,1450,2018/03/15 01:41:17.65,-2454,10059,-12710,-39,83,-39,83,-122,-122,-22,-22
,1451,2018/03/15 01:41:17.67,-2451,10113,-12661,-40,84,-34,89,-124,-123,-22,-27
,1452,2018/03/15 01:41:17.69,-2442,10079,-12740,-42,82,-34,90,-124,-124,-20,-28
,1453,2018/03/15 01:41:17.71,-2446,10103,-12614,-49,74,-41,82,-123,-123,-12,-20
,1454,2018/03/15 01:41:17.73,-2438,10058,-12589,-40,85,-43,89,-125,-132,-22,-23
,1455,2018/03/15 01:41:17.75,-2481,10019,-12564,-40,88,-41,84,-128,-125,-24,-21
,1456,2018/03/15 01:41:17.77,-2505,9993,-12620,-41,82,-34,91,-123,-125,-20,-28
,1457,2018/03/15 01:41:17.79,-2412,10089,-12661,-36,87,-31,91,-123,-122,-25,-30
,1458,2018/03/15 01:41:17.81,-2387,10110,-12671,-31,89,-32,89,-120,-121,-29,-28
,1459,2018/03/15 01:41:17.83,-2488,10143,-12688,-32,89,-39,82,-121,-121,-28,-21
,1460,2018/03/15 01:41:17.85,-2501,10185,-12662,-40,88,-37,88,-128,-125,-24,-25
,1461,2018/03/15 01:41:17.87,-2468,10152,-12597,-35,85,-30,87,-120,-117,-25,-28
,1462,2018/03/15 01:41:17.89,-2438,10093,-12660,-32,86,-36,88,-118,-124,-27,-26
,1463,2018/03/15 01:41:17.91,-2456,10098,-12636,-39,83,-37,83,-122,-120,-22,-23
,1464,2018/03/15 01:41:17.93,-2457,10108,-12664,-36,87,-40,84,-123,-124,-25,-22
,1465,2018/03/15 01:41:17.95,-2422,10095,-12598,-37,87,-36,86,-124,-122,-25,-25
,1466,2018/03/15 01:41:17.97,-2482,10083,-12642,-38,82,-36,84,-120,-120,-22,-24
,1467,2018/03/15 01:41:17.99,-2477,10119,-12657,-41,81,-40,84,-122,-124,-20,-22
,1468,2018/03/15 01:41:18.01,-2412,10102,-12600,-40,87,-38,89,-127,-127,-23,-25
,1469,2018/03/15 01:41:18.03,-2413,10111,-12645,-36,91,-40,80,-127,-120,-27,-20
,1470,2018/03/15 01:41:18.05,-2473,10065,-12651,-40,81,-41,84,-121,-125,-20,-21
,1471,2018/03/15 01:41:18.07,-2472,10052,-12659,-41,87,-37,98,-128,-135,-23,-30
,1472,2018/03/15 01:41:18.09,-2405,10086,-12680,-30,98,-41,89,-128,-130,-34,-24
,1473,2018/03/15 01:41:18.11,-2444,10092,-12673,-43,91,-54,76,-134,-130,-24,-11
,1474,2018/03/15 01:41:18.13,-2465,10064,-12719,-39,92,-43,89,-131,-132,-26,-23
,1475,2018/03/15 01:41:18.15,-2512,10089,-12692,-46,89,-40,91,-135,-131,-21,-25
,1476,2018/03/15 01:41:18.17,-2546,10083,-12470,-42,85,-43,86,-127,-129,-21,-21
,1477,2018/03/15 01:41:18.19,-2492,10115,-12485,-46,84,-45,82,-130,-127,-19,-18
,1478,2018/03/15 01:41:18.21,-2474,10147,-12609,-42,86,-45,82,-128,-127,-22,-18
,1479,2018/03/15 01:41:18.23,-2411,10195,-12735,-44,86,-41,87,-130,-128,-21,-23
,1480,2018/03/15 01:41:18.25,-2399,10155,-12715,-36,88,-34,89,-124,-123,-26,-27
,1481,2018/03/15 01:41:18.27,-2465,10133,-12720,-40,83,-41,84,-123,-125,-21,-21
,1482,2018/03/15 01:41:18.29,-2491,10158,-12673,-43,81,-41,82,-124,-123,-19,-20
,1483,2018/03/15 01:41:18.31,-2416,10099,-12660,-38,84,-40,81,-122,-121,-23,-20
,1484,2018/03/15 01:41:18.33,-2460,10047,-12652,-37,85,-39,86,-122,-125,-24,-23
,1485,2018/03/15 01:41:18.35,-2512,10034,-12624,-38,86,-35,89,-124,-124,-24,-27
,1486,2018/03/15 01:41:18.37,-2469,9971,-12665,-38,83,-38,84,-121,-122,-22,-23
,1487,2018/03/15 01:41:18.39,-2494,9988,-12627,-41,81,-41,82,-122,-123,-20,-20
,1488,2018/03/15 01:41:18.41,-2481,9933,-12656,-40,85,-42,82,-125,-124,-22,-20
,1489,2018/03/15 01:41:18.43,-2450,9959,-12616,-40,85,-40,85,-125,-125,-22,-22
,1490,2018/03/15 01:41:18.45,-2522,10038,-12626,-44,83,-48,82,-127,-130,-19,-17
,1491,2018/03/15 01:41:18.47,-2439,10083,-12648,-52,78,-51,80,-130,-131,-13,-14
,1492,2018/03/15 01:41:18.49,-2449,10165,-12675,-46,85,-34,93,-131,-127,-19,-29
