// Data mode  : Standard
// Transmission speed  : 50Hz
// Accelerometer sensor's range  : 2g
// Gyroscope sensor's range  : 2000dps
//
//ARTIFACT,NUM,DATE,ACC_X,ACC_Y,ACC_Z,EOG_L1,EOG_R1,EOG_L2,EOG_R2,EOG_H1,EOG_H2,EOG_V1,EOG_V2
,1,2018/03/15 00:39:29.15,1040,3778,-15882,-37,128,-30,130,-165,-160,-45,-50
,2,2018/03/15 00:39:29.17,1013,3770,-15953,-32,127,-32,120,-159,-152,-47,-44
,3,2018/03/15 00:39:29.19,979,3769,-15969,-32,122,-40,120,-154,-160,-45,-40
,4,2018/03/15 00:39:29.21,1059,3807,-15950,-42,122,-48,114,-164,-162,-40,-33
,5,2018/03/15 00:39:29.23,1064,3856,-15956,-45,118,-43,122,-163,-165,-36,-39
,6,2018/03/15 00:39:29.25,1052,3758,-15910,-40,127,-40,127,-167,-167,-43,-43
,7,2018/03/15 00:39:29.27,1074,3746,-15882,-42,123,-46,111,-165,-157,-40,-32
,8,2018/03/15 00:39:29.29,1082,3785,-15906,-42,108,-38,108,-150,-146,-33,-35
,9,2018/03/15 00:39:29.31,1087,3748,-15928,-40,108,-41,112,-148,-153,-34,-35
,10,2018/03/15 00:39:29.33,1111,3670,-15893,-42,111,-43,109,-153,-152,-34,-33
,11,2018/03/15 00:39:29.35,1099,3620,-15959,-42,107,-45,107,-149,-152,-32,-31
,12,2018/03/15 00:39:29.37,1181,3675,-15982,-47,105,-48,107,-152,-155,-29,-29
,13,2018/03/15 00:39:29.39,1167,3677,-15887,-46,116,-46,117,-162,-163,-35,-35
,14,2018/03/15 00:39:29.41,1176,3678,-15978,-56,120,-60,123,-176,-183,-32,-31
,15,2018/03/15 00:39:29.43,1201,3693,-15940,-59,126,-54,128,-185,-182,-33,-37
,16,2018/03/15 00:39:29.45,1293,3702,-15999,-52,129,-54,128,-181,-182,-38,-37
,17,2018/03/15 00:39:29.47,1145,3809,-16009,-56,128,-56,124,-184,-180,-36,-34
,18,2018/03/15 00:39:29.49,1233,3734,-15988,-55,123,-58,118,-178,-176,-34,-30
,19,2018/03/15 00:39:29.51,1243,3772,-16031,-62,115,-60,119,-177,-179,-26,-29
,20,2018/03/15 00:39:29.53,1153,3714,-15960,-59,118,-55,117,-177,-172,-29,-31
,21,2018/03/15 00:39:29.55,1214,3644,-16003,-62,114,-61,110,-176,-171,-26,-24
,22,2018/03/15 00:39:29.57,1130,3613,-15914,-56,122,-54,111,-178,-165,-33,-28
,23,2018/03/15 00:39:29.59,1227,3581,-15804,-55,114,-51,115,-169,-166,-29,-32
,24,2018/03/15 00:39:29.61,1179,3714,-15841,-59,108,-56,109,-167,-165,-24,-26
,25,2018/03/15 00:39:29.63,1210,3747,-15997,-57,101,-53,104,-158,-157,-22,-25
,26,2018/03/15 00:39:29.65,1135,3767,-16004,-51,105,-55,96,-156,-151,-27,-20
,27,2018/03/15 00:39:29.67,1190,3762,-15936,-40,109,-44,107,-149,-151,-34,-31
,28,2018/03/15 00:39:29.69,1136,3694,-15934,-46,105,-48,106,-151,-154,-29,-29
,29,2018/03/15 00:39:29.71,1145,3601,-15896,-47,109,-51,114,-156,-165,-31,-31
,30,2018/03/15 00:39:29.73,1168,3618,-15929,-55,111,-54,109,-166,-163,-28,-27
,31,2018/03/15 00:39:29.75,1205,3688,-15891,-52,110,-48,116,-162,-164,-29,-34
,32,2018/03/15 00:39:29.77,1104,3690,-15948,-52,117,-54,120,-169,-174,-32,-33
,33,2018/03/15 00:39:29.79,1179,3761,-15952,-53,121,-53,117,-174,-170,-34,-32
,34,2018/03/15 00:39:29.81,1103,3804,-15945,-56,108,-57,106,-164,-163,-26,-24
,35,2018/03/15 00:39:29.83,1164,3829,-15947,-60,108,-56,109,-168,-165,-24,-26
,36,2018/03/15 00:39:29.85,1133,3772,-15938,-56,111,-56,106,-167,-162,-27,-25
,37,2018/03/15 00:39:29.87,1131,3752,-15968,-52,109,-53,111,-161,-164,-28,-29
,38,2018/03/15 00:39:29.89,1157,3796,-15937,-56,103,-54,102,-159,-156,-23,-24
,39,2018/03/15 00:39:29.91,1190,3753,-15974,-50,97,-36,94,-147,-130,-23,-29
,40,2018/03/15 00:39:29.93,1237,3733,-15932,-15,95,-1,94,-110,-95,-40,-46
,41,2018/03/15 00:39:29.95,1109,3682,-16018,14,96,11,94,-82,-83,-55,-52
,42,2018/03/15 00:39:29.97,1125,3684,-15897,10,91,0,98,-81,-98,-50,-49
,43,2018/03/15 00:39:29.99,1088,3737,-15946,-1,93,-2,98,-94,-100,-46,-48
,44,2018/03/15 00:39:30.01,1184,3727,-15912,-1,99,-7,98,-100,-105,-49,-45
,45,2018/03/15 00:39:30.03,1180,3731,-15948,-11,98,-19,91,-109,-110,-43,-36
,46,2018/03/15 00:39:30.05,1148,3820,-15946,-16,102,-19,101,-118,-120,-43,-41
,47,2018/03/15 00:39:30.07,1233,3819,-15927,-21,98,-26,97,-119,-123,-38,-35
,48,2018/03/15 00:39:30.09,1148,3725,-15897,-25,95,-25,96,-120,-121,-35,-35
,49,2018/03/15 00:39:30.11,1164,3812,-15891,-24,95,-25,95,-119,-120,-35,-35
,50,2018/03/15 00:39:30.13,1179,3814,-15899,-27,95,-26,97,-122,-123,-34,-35
,51,2018/03/15 00:39:30.15,1219,3703,-15922,-21,101,-24,98,-122,-122,-40,-37
,52,2018/03/15 00:39:30.17,1186,3768,-15953,-27,91,-28,88,-118,-116,-32,-30
,53,2018/03/15 00:39:30.19,1145,3746,-15936,-24,89,-24,96,-113,-120,-32,-36
,54,2018/03/15 00:39:30.21,1171,3692,-15919,-22,95,-24,99,-117,-123,-36,-37
,55,2018/03/15 00:39:30.23,1179,3687,-15920,-31,97,-40,98,-128,-138,-33,-29
,56,2018/03/15 00:39:30.25,1231,3721,-15942,-43,100,-41,102,-143,-143,-28,-30
,57,2018/03/15 00:39:30.27,1237,3723,-15941,-36,105,-35,106,-141,-141,-34,-35
,58,2018/03/15 00:39:30.29,1164,3613,-16003,-38,102,-45,98,-140,-143,-32,-26
,59,2018/03/15 00:39:30.31,1231,3650,-15828,-45,98,-45,100,-143,-145,-26,-27
,60,2018/03/15 00:39:30.33,1251,3698,-15874,-43,104,-44,106,-147,-150,-30,-31
,61,2018/03/15 00:39:30.35,1258,3789,-15952,-42,104,-42,103,-146,-145,-31,-30
,62,2018/03/15 00:39:30.37,1291,3778,-16023,-46,103,-42,102,-149,-144,-28,-30
,63,2018/03/15 00:39:30.39,1278,3728,-15924,-47,100,-43,97,-147,-140,-26,-27
,64,2018/03/15 00:39:30.41,1161,3733,-15940,-44,100,-36,105,-144,-141,-28,-34
,65,2018/03/15 00:39:30.43,1219,3611,-15943,-42,106,-46,105,-148,-151,-32,-29
,66,2018/03/15 00:39:30.45,1214,3653,-15938,-48,102,-48,106,-150,-154,-27,-29
,67,2018/03/15 00:39:30.47,1184,3656,-15930,-46,106,-40,107,-152,-147,-30,-33
,68,2018/03/15 00:39:30.49,1209,3726,-15911,-44,103,-46,108,-147,-154,-29,-31
,69,2018/03/15 00:39:30.51,1241,3776,-15999,-46,108,-41,111,-154,-152,-31,-35
,70,2018/03/15 00:39:30.53,1245,3815,-15987,-42,109,-45,107,-151,-152,-33,-31
,71,2018/03/15 00:39:30.55,1229,3780,-15925,-46,112,-44,112,-158,-156,-33,-34
,72,2018/03/15 00:39:30.57,1248,3736,-15912,-40,108,-38,105,-148,-143,-34,-33
,73,2018/03/15 00:39:30.59,1188,3715,-15903,-37,110,-34,115,-147,-149,-36,-40
,74,2018/03/15 00:39:30.61,1170,3636,-15940,-34,115,-38,112,-149,-150,-40,-37
,75,2018/03/15 00:39:30.63,1187,3562,-15912,-45,107,-44,100,-152,-144,-31,-28
,76,2018/03/15 00:39:30.65,1214,3320,-15879,-47,102,-47,107,-149,-154,-27,-30
,77,2018/03/15 00:39:30.67,925,2163,-15792,-59,105,-79,98,-164,-177,-23,-9
,78,2018/03/15 00:39:30.69,936,842,-16006,-101,87,-112,87,-188,-199,7,12
,79,2018/03/15 00:39:30.71,1131,1122,-15930,-119,93,-125,95,-212,-220,13,15
,80,2018/03/15 00:39:30.73,1576,1831,-15883,-124,100,-123,105,-224,-228,12,9
,81,2018/03/15 00:39:30.75,2055,2742,-15805,-129,110,-133,112,-239,-245,9,10
,82,2018/03/15 00:39:30.77,2362,3231,-15920,-132,114,-129,114,-246,-243,9,7
,83,2018/03/15 00:39:30.79,2528,3756,-16095,-128,112,-135,109,-240,-244,8,13
,84,2018/03/15 00:39:30.81,2551,3991,-16212,-139,94,-143,86,-233,-229,22,28
,85,2018/03/15 00:39:30.83,2550,4149,-16223,-140,80,-146,68,-220,-214,30,39
,86,2018/03/15 00:39:30.85,2603,4028,-16345,-144,62,-143,53,-206,-196,41,45
,87,2018/03/15 00:39:30.87,2554,3832,-16239,-145,50,-149,38,-195,-187,47,55
,88,2018/03/15 00:39:30.89,2417,3666,-16103,-155,33,-153,29,-188,-182,61,62
,89,2018/03/15 00:39:30.91,2366,3342,-15999,-152,27,-154,23,-179,-177,62,65
,90,2018/03/15 00:39:30.93,2247,3232,-16047,-157,19,-157,16,-176,-173,69,70
,91,2018/03/15 00:39:30.95,2213,2996,-16014,-155,18,-150,22,-173,-172,68,64
,92,2018/03/15 00:39:30.97,2231,2873,-16098,-149,21,-150,14,-170,-164,64,68
,93,2018/03/15 00:39:30.99,2104,2802,-16176,-148,14,-145,16,-162,-161,67,64
,94,2018/03/15 00:39:31.01,2193,2729,-16102,-137,18,-133,23,-155,-156,59,55
,95,2018/03/15 00:39:31.03,2163,2734,-16016,-124,28,-120,34,-152,-154,48,43
,96,2018/03/15 00:39:31.05,2204,2583,-15974,-120,38,-123,36,-158,-159,41,43
,97,2018/03/15 00:39:31.07,2077,2447,-16131,-119,34,-110,35,-153,-145,42,37
,98,2018/03/15 00:39:31.09,2057,2328,-16254,-99,38,-99,48,-137,-147,30,25
,99,2018/03/15 00:39:31.11,2012,2284,-16256,-102,51,-101,54,-153,-155,25,23
,100,2018/03/15 00:39:31.13,2040,2226,-16199,-96,56,-94,57,-152,-151,20,18
,101,2018/03/15 00:39:31.15,2036,2316,-16242,-97,61,-92,63,-158,-155,18,14
,102,2018/03/15 00:39:31.17,1998,2560,-16278,-93,64,-97,57,-157,-154,14,20
,103,2018/03/15 00:39:31.19,2181,2886,-16306,-110,45,-119,34,-155,-153,32,42
,104,2018/03/15 00:39:31.21,2046,3284,-16453,-129,28,-129,11,-157,-140,50,59
,105,2018/03/15 00:39:31.23,1959,3311,-16427,-131,-6,-120,-13,-125,-107,68,66
,106,2018/03/15 00:39:31.25,1834,3228,-16432,-116,-12,-98,0,-104,-98,64,49
,107,2018/03/15 00:39:31.27,1756,3049,-16320,-76,15,-47,39,-91,-86,30,4
,108,2018/03/15 00:39:31.29,1614,2796,-16102,-17,61,11,84,-78,-73,-22,-47
,109,2018/03/15 00:39:31.31,1425,2558,-15999,32,108,49,125,-76,-76,-70,-87
,110,2018/03/15 00:39:31.33,1246,2378,-16008,62,142,70,148,-80,-78,-102,-109
,111,2018/03/15 00:39:31.35,1117,2296,-15994,76,154,80,161,-78,-81,-115,-120
,112,2018/03/15 00:39:31.37,891,2357,-15949,81,160,76,158,-79,-82,-120,-117
,113,2018/03/15 00:39:31.39,771,2230,-16020,64,148,53,145,-84,-92,-106,-99
,114,2018/03/15 00:39:31.41,558,2256,-15950,46,149,38,149,-103,-111,-97,-93
,115,2018/03/15 00:39:31.43,529,2241,-15926,24,138,13,135,-114,-122,-81,-74
,116,2018/03/15 00:39:31.45,445,2231,-15978,6,125,0,124,-119,-124,-65,-62
,117,2018/03/15 00:39:31.47,395,2469,-15891,-12,121,-12,123,-133,-135,-54,-55
,118,2018/03/15 00:39:31.49,372,2618,-16045,-10,128,-5,132,-138,-137,-59,-63
,119,2018/03/15 00:39:31.51,315,2836,-16044,-18,123,-34,110,-141,-144,-52,-38
,120,2018/03/15 00:39:31.53,321,2960,-16122,-37,111,-34,110,-148,-144,-37,-38
,121,2018/03/15 00:39:31.55,299,2994,-16082,-37,102,-31,101,-139,-132,-32,-35
,122,2018/03/15 00:39:31.57,290,2999,-16087,-37,102,-44,100,-139,-144,-32,-28
,123,2018/03/15 00:39:31.59,268,3019,-16074,-55,96,-60,93,-151,-153,-20,-16
,124,2018/03/15 00:39:31.61,359,3053,-16058,-52,96,-65,88,-148,-153,-22,-11
,125,2018/03/15 00:39:31.63,201,3078,-16103,-62,90,-65,91,-152,-156,-14,-13
,126,2018/03/15 00:39:31.65,261,3194,-16130,-64,95,-74,87,-159,-161,-15,-6
,127,2018/03/15 00:39:31.67,267,3217,-16129,-73,88,-78,79,-161,-157,-7,0
,128,2018/03/15 00:39:31.69,226,3150,-16189,-68,86,-73,78,-154,-151,-9,-2
,129,2018/03/15 00:39:31.71,185,3177,-16022,-74,74,-76,75,-148,-151,0,0
,130,2018/03/15 00:39:31.73,144,3233,-15958,-72,83,-69,88,-155,-157,-5,-9
,131,2018/03/15 00:39:31.75,162,3257,-15985,-60,89,-59,93,-149,-152,-14,-17
,132,2018/03/15 00:39:31.77,150,3266,-16085,-59,92,-62,90,-151,-152,-16,-14
,133,2018/03/15 00:39:31.79,84,3395,-16079,-61,93,-59,94,-154,-153,-16,-17
,134,2018/03/15 00:39:31.81,114,3357,-15992,-56,91,-57,95,-147,-152,-17,-19
,135,2018/03/15 00:39:31.83,169,3431,-15971,-56,98,-52,103,-154,-155,-21,-25
,136,2018/03/15 00:39:31.85,127,3462,-16026,-49,105,-46,108,-154,-154,-28,-31
,137,2018/03/15 00:39:31.87,129,3610,-16042,-57,99,-56,97,-156,-153,-21,-20
,138,2018/03/15 00:39:31.89,228,3693,-15951,-52,106,-56,104,-158,-160,-27,-24
,139,2018/03/15 00:39:31.91,195,3770,-16002,-58,101,-55,102,-159,-157,-21,-23
,140,2018/03/15 00:39:31.93,226,3817,-16014,-52,103,-52,99,-155,-151,-25,-23
,141,2018/03/15 00:39:31.95,254,3812,-15965,-59,97,-57,96,-156,-153,-19,-19
,142,2018/03/15 00:39:31.97,347,3812,-15964,-51,97,-46,100,-148,-146,-23,-27
,143,2018/03/15 00:39:31.99,311,3771,-15991,-43,109,-43,105,-152,-148,-33,-31
,144,2018/03/15 00:39:32.01,362,3775,-15944,-49,104,-48,101,-153,-149,-27,-26
,145,2018/03/15 00:39:32.03,269,3753,-15936,-58,93,-45,101,-151,-146,-17,-28
,146,2018/03/15 00:39:32.05,361,3772,-15954,-46,103,-45,106,-149,-151,-28,-30
,147,2018/03/15 00:39:32.07,364,3787,-15962,-54,101,-50,103,-155,-153,-23,-26
,148,2018/03/15 00:39:32.09,299,3771,-15894,-53,102,-54,99,-155,-153,-24,-22
,149,2018/03/15 00:39:32.11,311,3776,-15916,-53,96,-48,101,-149,-149,-21,-26
,150,2018/03/15 00:39:32.13,330,3817,-15972,-48,101,-50,100,-149,-150,-26,-25
,151,2018/03/15 00:39:32.15,333,3864,-15924,-48,97,-41,101,-145,-142,-24,-30
,152,2018/03/15 00:39:32.17,418,3898,-15946,-44,97,-48,95,-141,-143,-26,-23
,153,2018/03/15 00:39:32.19,407,3946,-15917,-45,98,-44,101,-143,-145,-26,-28
,154,2018/03/15 00:39:32.21,282,3950,-15915,-48,100,-56,93,-148,-149,-26,-18
,155,2018/03/15 00:39:32.23,416,3991,-15995,-59,92,-61,91,-151,-152,-16,-15
,156,2018/03/15 00:39:32.25,414,4031,-15981,-58,92,-62,89,-150,-151,-17,-13
,157,2018/03/15 00:39:32.27,340,4056,-15881,-67,85,-62,92,-152,-154,-9,-15
,158,2018/03/15 00:39:32.29,326,4119,-15904,-57,91,-56,87,-148,-143,-17,-15
,159,2018/03/15 00:39:32.31,247,4166,-15920,-50,101,-46,100,-151,-146,-25,-27
,160,2018/03/15 00:39:32.33,257,4163,-15884,-47,102,-54,100,-149,-154,-27,-23
,161,2018/03/15 00:39:32.35,362,4127,-15918,-42,108,-26,121,-150,-147,-33,-47
,162,2018/03/15 00:39:32.37,316,4200,-15798,-23,125,-30,122,-148,-152,-51,-46
,163,2018/03/15 00:39:32.39,285,4265,-15720,-36,119,-37,119,-155,-156,-41,-41
,164,2018/03/15 00:39:32.41,373,4388,-15743,-25,124,-25,129,-149,-154,-49,-52
,165,2018/03/15 00:39:32.43,401,4466,-15811,-23,128,-32,120,-151,-152,-52,-44
,166,2018/03/15 00:39:32.45,333,4493,-15839,-21,126,-26,122,-147,-148,-52,-48
,167,2018/03/15 00:39:32.47,386,4566,-15841,-23,122,-35,114,-145,-149,-49,-39
,168,2018/03/15 00:39:32.49,430,4614,-15842,-40,110,-48,98,-150,-146,-35,-25
,169,2018/03/15 00:39:32.51,394,4629,-15807,-52,96,-54,95,-148,-149,-22,-20
,170,2018/03/15 00:39:32.53,404,4607,-15758,-50,101,-50,105,-151,-155,-25,-27
,171,2018/03/15 00:39:32.55,421,4619,-15751,-50,102,-47,99,-152,-146,-26,-26
,172,2018/03/15 00:39:32.57,378,4567,-15775,-46,96,-48,97,-142,-145,-25,-24
,173,2018/03/15 00:39:32.59,347,4561,-15764,-47,100,-46,100,-147,-146,-26,-27
,174,2018/03/15 00:39:32.61,371,4470,-15727,-46,100,-47,102,-146,-149,-27,-27
,175,2018/03/15 00:39:32.63,369,4487,-15749,-44,104,-36,112,-148,-148,-30,-38
,176,2018/03/15 00:39:32.65,388,4526,-15712,-30,116,-30,114,-146,-144,-43,-42
,177,2018/03/15 00:39:32.67,377,4576,-15805,-33,110,-42,103,-143,-145,-38,-30
,178,2018/03/15 00:39:32.69,419,4536,-15735,-42,98,-40,100,-140,-140,-28,-30
,179,2018/03/15 00:39:32.71,347,4578,-15808,-40,97,-46,95,-137,-141,-28,-24
,180,2018/03/15 00:39:32.73,495,4588,-15781,-46,94,-47,99,-140,-146,-24,-26
,181,2018/03/15 00:39:32.75,446,4575,-15764,-48,105,-47,104,-153,-151,-28,-28
,182,2018/03/15 00:39:32.77,390,4506,-15740,-37,109,-33,109,-146,-142,-36,-38
,183,2018/03/15 00:39:32.79,431,4449,-15761,-32,109,-38,105,-141,-143,-38,-33
,184,2018/03/15 00:39:32.81,417,4487,-15744,-46,100,-42,102,-146,-144,-27,-30
,185,2018/03/15 00:39:32.83,377,4502,-15803,-42,105,-30,109,-147,-139,-31,-39
,186,2018/03/15 00:39:32.85,417,4493,-15771,-39,104,-32,112,-143,-144,-32,-40
,187,2018/03/15 00:39:32.87,386,4483,-15797,-34,113,-27,115,-147,-142,-39,-44
,188,2018/03/15 00:39:32.89,369,4466,-15792,-30,115,-32,115,-145,-147,-42,-41
,189,2018/03/15 00:39:32.91,447,4457,-15783,-39,105,-38,106,-144,-144,-33,-34
,190,2018/03/15 00:39:32.93,421,4449,-15821,-36,107,-31,111,-143,-142,-35,-40
,191,2018/03/15 00:39:32.95,307,4500,-15801,-30,117,-30,120,-147,-150,-43,-45
,192,2018/03/15 00:39:32.97,393,4439,-15813,-30,116,-23,115,-146,-138,-43,-46
,193,2018/03/15 00:39:32.99,263,4369,-15779,-24,115,-28,122,-139,-150,-45,-47
,194,2018/03/15 00:39:33.01,344,4375,-15779,-30,117,-32,115,-147,-147,-43,-41
,195,2018/03/15 00:39:33.03,318,4404,-15628,-29,117,-27,120,-146,-147,-44,-46
,196,2018/03/15 00:39:33.05,361,4516,-15676,-28,120,-32,118,-148,-150,-46,-43
,197,2018/03/15 00:39:33.07,354,4547,-15793,-32,118,-32,117,-150,-149,-43,-42
,198,2018/03/15 00:39:33.09,380,4542,-15886,-32,115,-36,118,-147,-154,-41,-41
,199,2018/03/15 00:39:33.11,367,4478,-15761,-37,118,-35,119,-155,-154,-40,-42
,200,2018/03/15 00:39:33.13,385,4442,-15775,-32,115,-36,115,-147,-151,-41,-39
,201,2018/03/15 00:39:33.15,428,4351,-15802,-35,118,-36,120,-153,-156,-41,-42
,202,2018/03/15 00:39:33.17,439,4335,-15773,-32,124,-30,124,-156,-154,-46,-47
,203,2018/03/15 00:39:33.19,344,4346,-15810,-31,125,-33,120,-156,-153,-47,-43
,204,2018/03/15 00:39:33.21,418,4390,-15762,-39,115,-44,109,-154,-153,-38,-32
,205,2018/03/15 00:39:33.23,461,4414,-15800,-33,119,-40,115,-152,-155,-43,-37
,206,2018/03/15 00:39:33.25,379,4391,-15800,-42,117,-55,105,-159,-160,-37,-25
,207,2018/03/15 00:39:33.27,430,4452,-15745,-42,115,-35,117,-157,-152,-36,-41
,208,2018/03/15 00:39:33.29,489,4460,-15803,-40,116,-43,112,-156,-155,-38,-34
,209,2018/03/15 00:39:33.31,409,4440,-15843,-44,113,-40,116,-157,-156,-34,-38
,210,2018/03/15 00:39:33.33,444,4428,-15778,-36,117,-38,113,-153,-151,-40,-37
,211,2018/03/15 00:39:33.35,483,4342,-15795,-38,111,-39,110,-149,-149,-36,-35
,212,2018/03/15 00:39:33.37,418,4431,-15809,-40,112,-42,112,-152,-154,-36,-35
,213,2018/03/15 00:39:33.39,428,4365,-15841,-43,112,-40,113,-155,-153,-34,-36
,214,2018/03/15 00:39:33.41,392,4372,-15778,-33,117,-30,119,-150,-149,-42,-44
,215,2018/03/15 00:39:33.43,448,4383,-15750,-28,121,-29,117,-149,-146,-46,-44
,216,2018/03/15 00:39:33.45,392,4421,-15811,-29,116,-33,114,-145,-147,-43,-40
,217,2018/03/15 00:39:33.47,415,4460,-15815,-37,115,-42,108,-152,-150,-39,-33
,218,2018/03/15 00:39:33.49,475,4554,-15740,-47,100,-51,87,-147,-138,-26,-18
,219,2018/03/15 00:39:33.51,455,4530,-15796,-61,75,-72,55,-136,-127,-7,8
,220,2018/03/15 00:39:33.53,397,4446,-15784,-91,31,-97,20,-122,-117,30,38
,221,2018/03/15 00:39:33.55,402,4418,-15845,-90,32,-76,52,-122,-128,29,12
,222,2018/03/15 00:39:33.57,426,4390,-15783,-64,71,-46,96,-135,-142,-3,-25
,223,2018/03/15 00:39:33.59,366,4357,-15782,-26,118,-13,132,-144,-145,-46,-59
,224,2018/03/15 00:39:33.61,420,4376,-15832,-1,145,5,152,-146,-147,-72,-78
,225,2018/03/15 00:39:33.63,316,4358,-15794,8,158,16,162,-150,-146,-83,-89
,226,2018/03/15 00:39:33.65,415,4283,-15820,12,156,17,157,-144,-140,-84,-87
,227,2018/03/15 00:39:33.67,348,4376,-15664,8,145,13,156,-137,-143,-76,-84
,228,2018/03/15 00:39:33.69,439,4444,-15650,4,149,0,143,-145,-143,-76,-71
,229,2018/03/15 00:39:33.71,438,4513,-15806,6,144,8,149,-138,-141,-75,-78
,230,2018/03/15 00:39:33.73,467,4467,-15857,3,143,2,144,-140,-142,-73,-73
,231,2018/03/15 00:39:33.75,450,4375,-15809,4,144,6,149,-140,-143,-74,-77
,232,2018/03/15 00:39:33.77,393,4319,-15760,1,143,0,139,-142,-139,-72,-69
,233,2018/03/15 00:39:33.79,382,4255,-15805,-2,136,-7,134,-138,-141,-67,-63
,234,2018/03/15 00:39:33.81,335,4242,-15850,-10,136,-14,130,-146,-144,-63,-58
,235,2018/03/15 00:39:33.83,368,4183,-15768,-17,128,-18,124,-145,-142,-55,-53
,236,2018/03/15 00:39:33.85,404,4294,-15765,-16,127,-16,128,-143,-144,-55,-56
,237,2018/03/15 00:39:33.87,433,4309,-15877,-17,131,-15,131,-148,-146,-57,-58
,238,2018/03/15 00:39:33.89,415,4322,-15881,-16,134,-17,134,-150,-151,-59,-58
,239,2018/03/15 00:39:33.91,456,4293,-15840,-22,132,-20,129,-154,-149,-55,-54
,240,2018/03/15 00:39:33.93,475,4328,-15801,-21,124,-25,122,-145,-147,-51,-48
,241,2018/03/15 00:39:33.95,457,4337,-15844,-25,118,-22,116,-143,-138,-46,-47
,242,2018/03/15 00:39:33.97,432,4358,-15827,-19,115,-20,121,-134,-141,-48,-50
,243,2018/03/15 00:39:33.99,396,4330,-15775,-24,121,-29,117,-145,-146,-48,-44
,244,2018/03/15 00:39:34.01,366,4278,-15794,-24,116,-30,112,-140,-142,-46,-41
,245,2018/03/15 00:39:34.03,391,4290,-15790,-37,111,-38,107,-148,-145,-37,-34
,246,2018/03/15 00:39:34.05,351,4293,-15800,-28,112,-28,110,-140,-138,-42,-41
,247,2018/03/15 00:39:34.07,422,4290,-15800,-29,115,-41,105,-144,-146,-43,-32
,248,2018/03/15 00:39:34.09,331,4390,-15749,-32,112,-32,104,-144,-136,-40,-36
,249,2018/03/15 00:39:34.11,443,4369,-15772,-31,112,-34,108,-143,-142,-40,-37
,250,2018/03/15 00:39:34.13,394,4444,-15815,-36,107,-32,109,-143,-141,-35,-38
,251,2018/03/15 00:39:34.15,374,4432,-15765,-29,118,-27,119,-147,-146,-44,-46
,252,2018/03/15 00:39:34.17,380,4346,-15787,-30,114,-31,111,-144,-142,-42,-40
,253,2018/03/15 00:39:34.19,434,4340,-15820,-27,114,-27,112,-141,-139,-43,-42
,254,2018/03/15 00:39:34.21,362,4327,-15801,-26,116,-21,116,-142,-137,-45,-47
,255,2018/03/15 00:39:34.23,352,4332,-15728,-22,121,-26,121,-143,-147,-49,-47
,256,2018/03/15 00:39:34.25,405,4379,-15781,-31,118,-29,118,-149,-147,-43,-44
,257,2018/03/15 00:39:34.27,375,4379,-15765,-28,119,-28,124,-147,-152,-45,-48
,258,2018/03/15 00:39:34.29,308,4303,-15907,-25,123,-24,121,-148,-145,-49,-48
,259,2018/03/15 00:39:34.31,395,4240,-15897,-21,120,-26,120,-141,-146,-49,-47
,260,2018/03/15 00:39:34.33,339,4191,-15789,-30,118,-32,114,-148,-146,-44,-41
,261,2018/03/15 00:39:34.35,342,4155,-15844,-30,117,-27,120,-147,-147,-43,-46
,262,2018/03/15 00:39:34.37,314,4288,-15861,-24,122,-24,122,-146,-146,-49,-49
,263,2018/03/15 00:39:34.39,404,4316,-15870,-21,124,-22,123,-145,-145,-51,-50
,264,2018/03/15 00:39:34.41,431,4387,-15829,-23,123,-21,124,-146,-145,-50,-51
,265,2018/03/15 00:39:34.43,545,4283,-15883,-20,126,-18,130,-146,-148,-53,-56
,266,2018/03/15 00:39:34.45,536,4185,-15982,-26,127,-18,135,-153,-153,-50,-58
,267,2018/03/15 00:39:34.47,599,4031,-16011,-22,123,-22,120,-145,-142,-50,-49
,268,2018/03/15 00:39:34.49,632,3980,-15988,-34,103,-27,113,-137,-140,-34,-43
,269,2018/03/15 00:39:34.51,681,3879,-15954,-27,114,-29,115,-141,-144,-43,-43
,270,2018/03/15 00:39:34.53,749,3860,-15990,-29,116,-33,114,-145,-147,-43,-40
,271,2018/03/15 00:39:34.55,702,3893,-16023,-35,110,-27,113,-145,-140,-37,-43
,272,2018/03/15 00:39:34.57,718,3833,-15957,-27,118,-28,121,-145,-149,-45,-46
,273,2018/03/15 00:39:34.59,668,3856,-15946,-29,119,-27,115,-148,-142,-45,-44
,274,2018/03/15 00:39:34.61,606,3781,-15923,-31,114,-32,112,-145,-144,-41,-40
,275,2018/03/15 00:39:34.63,677,3880,-15821,-29,113,-21,115,-142,-136,-42,-47
,276,2018/03/15 00:39:34.65,580,3957,-15929,-26,114,-33,112,-140,-145,-44,-39
,277,2018/03/15 00:39:34.67,616,4058,-15982,-34,109,-32,108,-143,-140,-37,-38
,278,2018/03/15 00:39:34.69,744,4236,-15779,-30,112,-33,111,-142,-144,-41,-39
,279,2018/03/15 00:39:34.71,876,4382,-15702,-30,112,-31,108,-142,-139,-41,-38
,280,2018/03/15 00:39:34.73,1046,4460,-15807,-34,106,-36,108,-140,-144,-36,-36
,281,2018/03/15 00:39:34.75,1156,4370,-16119,-40,113,-43,120,-153,-163,-36,-38
,282,2018/03/15 00:39:34.77,1054,4309,-16341,-45,125,-43,129,-170,-172,-40,-43
,283,2018/03/15 00:39:34.79,825,4306,-16345,-45,128,-48,126,-173,-174,-41,-39
,284,2018/03/15 00:39:34.81,501,4135,-16442,-46,123,-46,125,-169,-171,-38,-39
,285,2018/03/15 00:39:34.83,16,4128,-16334,-48,123,-53,119,-171,-172,-37,-33
,286,2018/03/15 00:39:34.85,-339,4090,-16011,-54,113,-56,112,-167,-168,-29,-28
,287,2018/03/15 00:39:34.87,-825,4207,-15793,-45,120,-58,107,-165,-165,-37,-24
,288,2018/03/15 00:39:34.89,-1265,4124,-15639,-56,109,-64,97,-165,-161,-26,-16
,289,2018/03/15 00:39:34.91,-1669,3988,-15567,-55,108,-58,105,-163,-163,-26,-23
,290,2018/03/15 00:39:34.93,-2013,4002,-15484,-62,102,-60,102,-164,-162,-20,-21
,291,2018/03/15 00:39:34.95,-2364,3975,-15361,-62,95,-59,98,-157,-157,-16,-19
,292,2018/03/15 00:39:34.97,-2481,3983,-15368,-53,110,-58,117,-163,-175,-28,-29
,293,2018/03/15 00:39:34.99,-2607,4165,-15407,-58,123,-61,118,-181,-179,-32,-28
,294,2018/03/15 00:39:35.01,-2671,4246,-15478,-59,117,-58,117,-176,-175,-29,-29
,295,2018/03/15 00:39:35.03,-2728,4222,-15615,-61,115,-55,115,-176,-170,-27,-30
,296,2018/03/15 00:39:35.05,-2767,3842,-15748,-50,116,-45,120,-166,-165,-33,-37
,297,2018/03/15 00:39:35.07,-2670,3661,-15764,-42,120,-47,119,-162,-166,-39,-36
,298,2018/03/15 00:39:35.09,-2524,3508,-15721,-49,120,-55,114,-169,-169,-35,-29
,299,2018/03/15 00:39:35.11,-2385,3259,-15942,-57,110,-55,109,-167,-164,-26,-27
,300,2018/03/15 00:39:35.13,-2272,3041,-16096,-56,106,-60,99,-162,-159,-25,-19
,301,2018/03/15 00:39:35.15,-2260,2910,-16148,-65,94,-65,91,-159,-156,-14,-13
,302,2018/03/15 00:39:35.17,-2235,2712,-16115,-68,98,-69,100,-166,-169,-15,-15
,303,2018/03/15 00:39:35.19,-2246,2800,-15931,-72,93,-72,91,-165,-163,-10,-9
,304,2018/03/15 00:39:35.21,-2182,2648,-16031,-78,88,-77,86,-166,-163,-5,-4
,305,2018/03/15 00:39:35.23,-2200,2602,-16072,-76,77,-79,67,-153,-146,0,6
,306,2018/03/15 00:39:35.25,-2164,2496,-16116,-86,62,-99,49,-148,-148,12,25
,307,2018/03/15 00:39:35.27,-2093,2267,-16260,-116,36,-125,25,-152,-150,40,50
,308,2018/03/15 00:39:35.29,-2040,2222,-16454,-162,-5,-191,-35,-157,-156,83,113
,309,2018/03/15 00:39:35.31,-2054,2227,-16440,-228,-77,-241,-87,-151,-154,152,164
,310,2018/03/15 00:39:35.33,-2191,2316,-16396,-276,-121,-316,-157,-155,-159,198,236
,311,2018/03/15 00:39:35.35,-2327,2509,-16315,-335,-179,-352,-194,-156,-158,257,273
,312,2018/03/15 00:39:35.37,-2430,2472,-16184,-365,-208,-375,-219,-157,-156,286,297
,313,2018/03/15 00:39:35.39,-2588,2395,-15996,-387,-237,-420,-268,-150,-152,312,344
,314,2018/03/15 00:39:35.41,-2634,2588,-15892,-466,-311,-508,-358,-155,-150,388,433
,315,2018/03/15 00:39:35.43,-2750,2679,-15941,-554,-407,-609,-460,-147,-149,480,534
,316,2018/03/15 00:39:35.45,-2816,2870,-16039,-694,-547,-806,-659,-147,-147,620,732
,317,2018/03/15 00:39:35.47,-2885,2975,-15843,-928,-781,-1050,-903,-147,-147,854,976
,318,2018/03/15 00:39:35.49,-3007,2819,-15835,-1170,-1024,-1289,-1144,-146,-145,1097,1216
,319,2018/03/15 00:39:35.51,-3061,2690,-15657,-1415,-1274,-1556,-1416,-141,-140,1344,1486
,320,2018/03/15 00:39:35.53,-3146,2444,-15857,-1687,-1552,-1791,-1664,-135,-127,1619,1727
,321,2018/03/15 00:39:35.55,-3364,2343,-15714,-1874,-1762,-1940,-1854,-112,-86,1818,1897
,322,2018/03/15 00:39:35.57,-3299,2469,-15715,-1984,-1930,-2007,-1980,-54,-27,1957,1993
,323,2018/03/15 00:39:35.59,-3385,2448,-15650,-2017,-2007,-2020,-2019,-10,-1,2012,2019
,324,2018/03/15 00:39:35.61,-3569,2366,-15769,-2021,-2021,-2014,-2007,0,-7,2021,2010
,325,2018/03/15 00:39:35.63,-3519,2307,-15665,-1993,-1970,-1966,-1924,-23,-42,1981,1945
,326,2018/03/15 00:39:35.65,-3656,2420,-15572,-1915,-1857,-1850,-1782,-58,-68,1886,1816
,327,2018/03/15 00:39:35.67,-3765,2312,-15639,-1813,-1744,-1853,-1797,-69,-56,1778,1825
,328,2018/03/15 00:39:35.69,-3860,2362,-15614,-1929,-1897,-1992,-1977,-32,-15,1913,1984
,329,2018/03/15 00:39:35.71,-3683,2345,-15546,-2022,-2018,-2031,-2031,-4,0,2020,2031
,330,2018/03/15 00:39:35.73,-3554,2353,-15626,-2029,-2031,-2026,-2027,2,1,2030,2026
,331,2018/03/15 00:39:35.75,-3427,2390,-15725,-2024,-2025,-2024,-2024,1,0,2024,2024
,332,2018/03/15 00:39:35.77,-3307,2423,-15926,-2024,-2024,-1992,-2024,0,32,2024,2008
,333,2018/03/15 00:39:35.79,-3143,2380,-16055,-1860,-2025,-1407,-2025,165,618,1942,1716
,334,2018/03/15 00:39:35.81,-3039,2453,-16125,-453,-2025,630,-2025,1572,2655,1239,697
,335,2018/03/15 00:39:35.83,-3125,2397,-16092,658,-2026,-100,-2026,2684,1926,684,1063
,336,2018/03/15 00:39:35.85,-2974,2386,-16003,-953,-2026,-1531,-2026,1073,495,1489,1778
,337,2018/03/15 00:39:35.87,-3022,2423,-16077,-1854,-2026,-2002,-2026,172,24,1940,2014
,338,2018/03/15 00:39:35.89,-3090,2461,-15947,-2047,-2026,-2046,-2026,-21,-20,2036,2036
,339,2018/03/15 00:39:35.91,-3121,2624,-15734,-2033,-2026,-2024,-2026,-7,2,2029,2025
,340,2018/03/15 00:39:35.93,-3077,2663,-15852,-2020,-2026,-1996,-2026,6,30,2023,2011
,341,2018/03/15 00:39:35.95,-3133,2748,-15766,-1714,-2007,-712,-1581,293,869,1860,1146
,342,2018/03/15 00:39:35.97,-3035,2690,-15875,1164,-284,1956,1694,1448,262,-440,-1825
,343,2018/03/15 00:39:35.99,-2976,2368,-15653,1969,1792,1961,1809,177,152,-1880,-1885
,344,2018/03/15 00:39:36.01,-2656,2230,-16046,1965,1797,1969,1793,168,176,-1881,-1881
,345,2018/03/15 00:39:36.03,-2418,2509,-15894,1952,1752,1960,1236,200,724,-1852,-1598
,346,2018/03/15 00:39:36.05,-2418,2468,-15897,1968,503,1988,46,1465,1942,-1235,-1017
,347,2018/03/15 00:39:36.07,-2416,2583,-16068,1968,-144,1983,-226,2112,2209,-912,-878
,348,2018/03/15 00:39:36.09,-2407,2513,-15840,1839,-404,1028,-643,2243,1671,-717,-192
,349,2018/03/15 00:39:36.11,-2336,2670,-15636,-74,-894,-1006,-1128,820,122,484,1067
,350,2018/03/15 00:39:36.13,-2432,2942,-15919,-1562,-1264,-1854,-1292,-298,-562,1413,1573
,351,2018/03/15 00:39:36.15,-2292,2560,-16031,-1986,-1225,-2030,-1137,-761,-893,1605,1583
,352,2018/03/15 00:39:36.17,-2109,2891,-15940,-2034,-1062,-2023,-1000,-972,-1023,1548,1511
,353,2018/03/15 00:39:36.19,-2061,3069,-15847,-1996,-950,-1908,-923,-1046,-985,1473,1415
,354,2018/03/15 00:39:36.21,-1918,3177,-16003,-1747,-910,-1511,-990,-837,-521,1328,1250
,355,2018/03/15 00:39:36.23,-1758,3276,-15940,-1248,-1117,-994,-1272,-131,278,1182,1133
,356,2018/03/15 00:39:36.25,-1622,3191,-15983,-906,-1509,-1006,-1719,603,713,1207,1362
,357,2018/03/15 00:39:36.27,-1398,3102,-16041,-1220,-1874,-1303,-1959,654,656,1547,1631
,358,2018/03/15 00:39:36.29,-1259,3318,-16150,-1379,-1999,-1484,-2016,620,532,1689,1750
,359,2018/03/15 00:39:36.31,-1056,3384,-16227,-1652,-2021,-1820,-2022,369,202,1836,1921
,360,2018/03/15 00:39:36.33,-930,3420,-16364,-1940,-2022,-2005,-2022,82,17,1981,2013
,361,2018/03/15 00:39:36.35,-847,3339,-16386,-2029,-2023,-2032,-2023,-6,-9,2026,2027
,362,2018/03/15 00:39:36.37,-716,3182,-16285,-2024,-1971,-1969,-1745,-53,-224,1997,1857
,363,2018/03/15 00:39:36.39,-620,3224,-16042,-1798,-1330,-1414,-626,-468,-788,1564,1020
,364,2018/03/15 00:39:36.41,-651,3181,-16018,-818,428,-124,1371,-1246,-1495,195,-623
,365,2018/03/15 00:39:36.43,-496,3356,-16149,422,1730,675,1742,-1308,-1067,-1076,-1208
,366,2018/03/15 00:39:36.45,-549,3494,-16076,813,1769,1045,1787,-956,-742,-1291,-1416
,367,2018/03/15 00:39:36.47,-422,3606,-15954,1378,1792,1666,1800,-414,-134,-1585,-1733
,368,2018/03/15 00:39:36.49,-432,3620,-16065,1790,1804,1745,1804,-14,-59,-1797,-1774
,369,2018/03/15 00:39:36.51,-452,3633,-16141,1771,1822,1833,1808,-51,25,-1796,-1820
,370,2018/03/15 00:39:36.53,-519,3574,-16199,1868,1808,1828,1796,60,32,-1838,-1812
,371,2018/03/15 00:39:36.55,-523,3569,-16231,1674,1811,1391,1809,-137,-418,-1742,-1600
,372,2018/03/15 00:39:36.57,-595,3641,-16122,1240,1803,1350,1813,-563,-463,-1521,-1581
,373,2018/03/15 00:39:36.59,-534,3571,-15837,1565,1812,1690,1814,-247,-124,-1688,-1752
,374,2018/03/15 00:39:36.61,-212,3619,-15389,1736,1810,1781,1810,-74,-29,-1773,-1795
,375,2018/03/15 00:39:36.63,-275,3547,-15754,1776,1813,1706,1812,-37,-106,-1794,-1759
,376,2018/03/15 00:39:36.65,-376,3436,-16891,1624,1810,1533,1812,-186,-279,-1717,-1672
,377,2018/03/15 00:39:36.67,-460,3535,-16110,1441,1812,1356,1811,-371,-455,-1626,-1583
,378,2018/03/15 00:39:36.69,-433,3781,-15963,1278,1813,1200,1811,-535,-611,-1545,-1505
,379,2018/03/15 00:39:36.71,-207,3504,-15519,1122,1811,1012,1806,-689,-794,-1466,-1409
,380,2018/03/15 00:39:36.73,29,3494,-15590,925,1810,914,1806,-885,-892,-1367,-1360
,381,2018/03/15 00:39:36.75,202,3406,-15920,933,1778,919,1789,-845,-870,-1355,-1354
,382,2018/03/15 00:39:36.77,235,3441,-16162,894,1774,872,1725,-880,-853,-1334,-1298
,383,2018/03/15 00:39:36.79,426,3483,-16237,871,1640,884,1514,-769,-630,-1255,-1199
,384,2018/03/15 00:39:36.81,605,3722,-16285,913,1468,951,1502,-555,-551,-1190,-1226
,385,2018/03/15 00:39:36.83,719,3927,-16318,962,1522,944,1498,-560,-554,-1242,-1221
,386,2018/03/15 00:39:36.85,601,3981,-16432,940,1479,937,1490,-539,-553,-1209,-1213
,387,2018/03/15 00:39:36.87,415,3865,-16400,919,1492,910,1484,-573,-574,-1205,-1197
,388,2018/03/15 00:39:36.89,174,4001,-16163,879,1456,852,1430,-577,-578,-1167,-1141
,389,2018/03/15 00:39:36.91,-190,4079,-15941,829,1413,820,1433,-584,-613,-1121,-1126
,390,2018/03/15 00:39:36.93,-436,4018,-15794,788,1418,773,1407,-630,-634,-1103,-1090
,391,2018/03/15 00:39:36.95,-778,3989,-15914,756,1370,743,1353,-614,-610,-1063,-1048
,392,2018/03/15 00:39:36.97,-918,4428,-16199,728,1323,706,1289,-595,-583,-1025,-997
,393,2018/03/15 00:39:36.99,-983,4227,-15878,688,1292,655,1271,-604,-616,-990,-963
,394,2018/03/15 00:39:37.01,-938,3729,-15575,635,1242,621,1211,-607,-590,-938,-916
,395,2018/03/15 00:39:37.03,-1005,3289,-15590,612,1185,612,1162,-573,-550,-898,-887
,396,2018/03/15 00:39:37.05,-1052,3451,-15725,607,1136,586,1114,-529,-528,-871,-850
,397,2018/03/15 00:39:37.07,-937,3441,-15614,563,1081,546,1047,-518,-501,-822,-796
,398,2018/03/15 00:39:37.09,-665,3409,-15692,536,1015,519,974,-479,-455,-775,-746
,399,2018/03/15 00:39:37.11,-567,3381,-15687,517,943,505,914,-426,-409,-730,-709
,400,2018/03/15 00:39:37.13,-171,3450,-15724,487,884,482,863,-397,-381,-685,-672
,401,2018/03/15 00:39:37.15,-48,3529,-16048,468,843,444,816,-375,-372,-655,-630
,402,2018/03/15 00:39:37.17,50,3574,-16040,409,779,396,762,-370,-366,-594,-579
,403,2018/03/15 00:39:37.19,-1,4031,-16227,391,764,376,749,-373,-373,-577,-562
,404,2018/03/15 00:39:37.21,73,4357,-16129,366,727,360,705,-361,-345,-546,-532
,405,2018/03/15 00:39:37.23,124,4603,-15928,359,689,357,688,-330,-331,-524,-522
,406,2018/03/15 00:39:37.25,190,4460,-15817,352,685,341,671,-333,-330,-518,-506
,407,2018/03/15 00:39:37.27,232,4219,-15632,337,657,331,641,-320,-310,-497,-486
,408,2018/03/15 00:39:37.29,264,3911,-15683,324,615,332,600,-291,-268,-469,-466
,409,2018/03/15 00:39:37.31,291,3780,-15789,344,595,341,592,-251,-251,-469,-466
,410,2018/03/15 00:39:37.33,417,3537,-15704,363,618,367,627,-255,-260,-490,-497
,411,2018/03/15 00:39:37.35,457,3784,-15921,377,635,383,631,-258,-248,-506,-507
,412,2018/03/15 00:39:37.37,441,4184,-16023,370,626,353,613,-256,-260,-498,-483
,413,2018/03/15 00:39:37.39,506,4382,-15932,337,608,309,586,-271,-277,-472,-447
,414,2018/03/15 00:39:37.41,530,4589,-16010,291,576,284,572,-285,-288,-433,-428
,415,2018/03/15 00:39:37.43,487,4910,-15990,274,557,259,539,-283,-280,-415,-399
,416,2018/03/15 00:39:37.45,586,5188,-15982,235,518,209,501,-283,-292,-376,-355
,417,2018/03/15 00:39:37.47,670,5189,-15707,184,484,162,465,-300,-303,-334,-313
,418,2018/03/15 00:39:37.49,562,4905,-15512,149,458,146,456,-309,-310,-303,-301
,419,2018/03/15 00:39:37.51,618,4593,-15627,147,464,147,473,-317,-326,-305,-310
,420,2018/03/15 00:39:37.53,567,4194,-15633,144,472,136,454,-328,-318,-308,-295
,421,2018/03/15 00:39:37.55,762,3839,-15793,138,436,159,434,-298,-275,-287,-296
,422,2018/03/15 00:39:37.57,926,3574,-15712,182,433,195,423,-251,-228,-307,-309
,423,2018/03/15 00:39:37.59,1019,3388,-15726,203,410,210,400,-207,-190,-306,-305
,424,2018/03/15 00:39:37.61,1072,3253,-15804,205,387,184,361,-182,-177,-296,-272
,425,2018/03/15 00:39:37.63,1290,3324,-15946,125,299,58,232,-174,-174,-212,-145
,426,2018/03/15 00:39:37.65,1386,3546,-16071,8,182,-18,161,-174,-179,-95,-71
,427,2018/03/15 00:39:37.67,1438,4201,-16264,-14,166,7,185,-180,-178,-76,-96
,428,2018/03/15 00:39:37.69,1380,4800,-16284,38,211,68,237,-173,-169,-124,-152
,429,2018/03/15 00:39:37.71,1357,5020,-15921,72,245,70,254,-173,-184,-158,-162
,430,2018/03/15 00:39:37.73,1310,4787,-15799,73,268,93,302,-195,-209,-170,-197
,431,2018/03/15 00:39:37.75,1152,3982,-15479,89,303,97,304,-214,-207,-196,-200
,432,2018/03/15 00:39:37.77,1133,3498,-15616,113,295,130,307,-182,-177,-204,-218
,433,2018/03/15 00:39:37.79,1228,3258,-15733,141,320,162,325,-179,-163,-230,-243
,434,2018/03/15 00:39:37.81,1310,3780,-16123,157,288,120,237,-131,-117,-222,-178
,435,2018/03/15 00:39:37.83,1397,4146,-16126,44,158,-104,17,-114,-121,-101,43
,436,2018/03/15 00:39:37.85,1464,4499,-16319,-274,-157,-431,-318,-117,-113,215,374
,437,2018/03/15 00:39:37.87,1509,4591,-16118,-571,-459,-681,-566,-112,-115,515,623
,438,2018/03/15 00:39:37.89,1517,4513,-15946,-739,-615,-739,-603,-124,-136,677,671
,439,2018/03/15 00:39:37.91,1418,4401,-16002,-689,-543,-617,-468,-146,-149,616,542
,440,2018/03/15 00:39:37.93,1405,4252,-15966,-524,-373,-420,-263,-151,-157,448,341
,441,2018/03/15 00:39:37.95,1461,4266,-15938,-307,-142,-220,-54,-165,-166,224,137
,442,2018/03/15 00:39:37.97,1462,4161,-15817,-162,1,-147,21,-163,-168,80,63
,443,2018/03/15 00:39:37.99,1410,4108,-15756,-195,-20,-286,-110,-175,-176,107,198
,444,2018/03/15 00:39:38.01,1334,4113,-15806,-384,-208,-449,-271,-176,-178,296,360
,445,2018/03/15 00:39:38.03,1361,4140,-15807,-486,-306,-502,-319,-180,-183,396,410
,446,2018/03/15 00:39:38.05,1381,4218,-15871,-514,-338,-531,-366,-176,-165,426,448
,447,2018/03/15 00:39:38.07,1245,4334,-15890,-560,-398,-584,-419,-162,-165,479,501
,448,2018/03/15 00:39:38.09,1377,4356,-15870,-606,-435,-619,-442,-171,-177,520,530
,449,2018/03/15 00:39:38.11,1345,4357,-15759,-625,-444,-609,-427,-181,-182,534,518
,450,2018/03/15 00:39:38.13,1304,4320,-15798,-576,-396,-529,-346,-180,-183,486,437
,451,2018/03/15 00:39:38.15,1247,4219,-15931,-475,-286,-428,-241,-189,-187,380,334
,452,2018/03/15 00:39:38.17,1147,4208,-16001,-363,-179,-303,-129,-184,-174,271,216
,453,2018/03/15 00:39:38.19,1021,4075,-15936,-231,-56,-144,25,-175,-169,143,59
,454,2018/03/15 00:39:38.21,921,4052,-15922,-57,101,34,189,-158,-155,-22,-111
,455,2018/03/15 00:39:38.23,807,3967,-15755,100,253,146,296,-153,-150,-176,-221
,456,2018/03/15 00:39:38.25,707,3958,-15608,188,340,230,382,-152,-152,-264,-306
,457,2018/03/15 00:39:38.27,642,3937,-15450,260,415,286,440,-155,-154,-337,-363
,458,2018/03/15 00:39:38.29,508,3957,-15558,326,478,344,496,-152,-152,-402,-420
,459,2018/03/15 00:39:38.31,348,3965,-15760,344,498,350,512,-154,-162,-421,-431
,460,2018/03/15 00:39:38.33,276,3978,-15934,359,527,358,528,-168,-170,-443,-443
,461,2018/03/15 00:39:38.35,213,3988,-15846,354,526,333,501,-172,-168,-440,-417
,462,2018/03/15 00:39:38.37,293,4064,-15811,297,463,281,437,-166,-156,-380,-359
,463,2018/03/15 00:39:38.39,208,4090,-15744,241,389,202,353,-148,-151,-315,-277
,464,2018/03/15 00:39:38.41,225,4084,-15728,186,343,180,332,-157,-152,-264,-256
,465,2018/03/15 00:39:38.43,163,4095,-15800,130,277,50,194,-147,-144,-203,-122
,466,2018/03/15 00:39:38.45,264,4003,-15838,-27,116,-84,57,-143,-141,-44,13
,467,2018/03/15 00:39:38.47,338,3939,-15922,-94,49,-70,79,-143,-149,22,-4
,468,2018/03/15 00:39:38.49,348,3884,-15851,-38,113,-4,142,-151,-146,-37,-69
,469,2018/03/15 00:39:38.51,388,3783,-15897,13,157,3,148,-144,-145,-85,-75
,470,2018/03/15 00:39:38.53,406,3739,-15986,-12,135,-16,132,-147,-148,-61,-58
,471,2018/03/15 00:39:38.55,412,3663,-16080,0,149,24,174,-149,-150,-74,-99
,472,2018/03/15 00:39:38.57,371,3620,-16119,44,189,78,210,-145,-132,-116,-144
,473,2018/03/15 00:39:38.59,410,3626,-16083,124,230,148,242,-106,-94,-177,-195
,474,2018/03/15 00:39:38.61,387,3664,-15995,152,243,158,253,-91,-95,-197,-205
,475,2018/03/15 00:39:38.63,414,3665,-15886,177,267,195,284,-90,-89,-222,-239
,476,2018/03/15 00:39:38.65,315,3643,-15898,199,293,192,288,-94,-96,-246,-240
,477,2018/03/15 00:39:38.67,294,3597,-15974,200,296,210,298,-96,-88,-248,-254
,478,2018/03/15 00:39:38.69,240,3588,-16014,211,293,209,295,-82,-86,-252,-252
,479,2018/03/15 00:39:38.71,323,3611,-15969,192,285,178,276,-93,-98,-238,-227
,480,2018/03/15 00:39:38.73,188,3667,-15929,165,265,156,256,-100,-100,-215,-206
,481,2018/03/15 00:39:38.75,327,3798,-15816,159,258,164,265,-99,-101,-208,-214
,482,2018/03/15 00:39:38.77,344,3937,-15791,173,279,177,288,-106,-111,-226,-232
,483,2018/03/15 00:39:38.79,307,4083,-15827,184,297,185,296,-113,-111,-240,-240
,484,2018/03/15 00:39:38.81,356,4144,-15906,186,298,189,304,-112,-115,-242,-246
,485,2018/03/15 00:39:38.83,224,4292,-15877,185,301,186,297,-116,-111,-243,-241
,486,2018/03/15 00:39:38.85,249,4274,-15900,190,296,187,293,-106,-106,-243,-240
,487,2018/03/15 00:39:38.87,200,4362,-15874,183,292,185,293,-109,-108,-237,-239
,488,2018/03/15 00:39:38.89,196,4350,-15850,189,293,193,297,-104,-104,-241,-245
,489,2018/03/15 00:39:38.91,236,4327,-15869,198,304,200,307,-106,-107,-251,-253
,490,2018/03/15 00:39:38.93,252,4377,-15711,196,306,191,305,-110,-114,-251,-248
,491,2018/03/15 00:39:38.95,246,4395,-15593,185,296,176,284,-111,-108,-240,-230
,492,2018/03/15 00:39:38.97,313,4561,-15735,174,287,167,280,-113,-113,-230,-223
,493,2018/03/15 00:39:38.99,361,4554,-15870,170,282,169,273,-112,-104,-226,-221
,494,2018/03/15 00:39:39.01,354,4518,-15847,144,256,125,232,-112,-107,-200,-178
,495,2018/03/15 00:39:39.03,427,4471,-15817,103,198,87,173,-95,-86,-150,-130
,496,2018/03/15 00:39:39.05,526,4428,-15926,68,148,54,130,-80,-76,-108,-92
,497,2018/03/15 00:39:39.07,420,4274,-15865,11,88,-47,34,-77,-81,-49,6
,498,2018/03/15 00:39:39.09,441,4212,-15832,-84,1,-92,-6,-85,-86,41,49
,499,2018/03/15 00:39:39.11,535,4123,-15799,-94,-7,-96,-9,-87,-87,50,52
,500,2018/03/15 00:39:39.13,513,4041,-15875,-96,-8,-88,-2,-88,-86,52,45
,501,2018/03/15 00:39:39.15,615,3953,-15854,-76,16,-62,33,-92,-95,30,14
,502,2018/03/15 00:39:39.17,572,3936,-15923,-46,53,-27,76,-99,-103,-3,-24
,503,2018/03/15 00:39:39.19,621,4012,-15852,-10,93,6,108,-103,-102,-41,-57
,504,2018/03/15 00:39:39.21,602,4168,-15912,24,126,40,144,-102,-104,-75,-92
,505,2018/03/15 00:39:39.23,708,4238,-15879,49,156,55,162,-107,-107,-102,-108
,506,2018/03/15 00:39:39.25,696,4225,-15800,61,167,69,175,-106,-106,-114,-122
,507,2018/03/15 00:39:39.27,660,4166,-15871,76,184,85,195,-108,-110,-130,-140
,508,2018/03/15 00:39:39.29,607,4031,-15818,93,200,101,203,-107,-102,-146,-152
,509,2018/03/15 00:39:39.31,683,3738,-15730,101,203,102,206,-102,-104,-152,-154
,510,2018/03/15 00:39:39.33,580,3275,-15827,103,209,102,210,-106,-108,-156,-156
,511,2018/03/15 00:39:39.35,662,2873,-15722,102,214,104,215,-112,-111,-158,-159
,512,2018/03/15 00:39:39.37,610,2536,-15709,104,212,102,210,-108,-108,-158,-156
,513,2018/03/15 00:39:39.39,873,2042,-15537,78,191,63,183,-113,-120,-134,-123
,514,2018/03/15 00:39:39.41,1183,1688,-15541,57,182,45,183,-125,-138,-119,-114
,515,2018/03/15 00:39:39.43,1552,1395,-15651,39,184,35,180,-145,-145,-111,-107
,516,2018/03/15 00:39:39.45,2011,1438,-16090,51,193,58,199,-142,-141,-122,-128
,517,2018/03/15 00:39:39.47,2713,1671,-15949,63,202,66,205,-139,-139,-132,-135
,518,2018/03/15 00:39:39.49,3413,2104,-15644,73,210,83,216,-137,-133,-141,-149
,519,2018/03/15 00:39:39.51,3972,2430,-15809,96,224,104,227,-128,-123,-160,-165
,520,2018/03/15 00:39:39.53,4335,2566,-15916,103,228,103,226,-125,-123,-165,-164
,521,2018/03/15 00:39:39.55,4527,2667,-16191,97,211,88,188,-114,-100,-154,-138
,522,2018/03/15 00:39:39.57,4642,2568,-16117,69,161,56,144,-92,-88,-115,-100
,523,2018/03/15 00:39:39.59,4597,2223,-16317,53,139,51,132,-86,-81,-96,-91
,524,2018/03/15 00:39:39.61,4451,1859,-16372,41,114,26,97,-73,-71,-77,-61
,525,2018/03/15 00:39:39.63,4460,2256,-16177,11,87,3,89,-76,-86,-49,-46
,526,2018/03/15 00:39:39.65,4250,2669,-15916,0,94,-12,88,-94,-100,-47,-38
,527,2018/03/15 00:39:39.67,4020,3267,-15850,-22,78,-18,74,-100,-92,-28,-28
,528,2018/03/15 00:39:39.69,3701,3579,-15882,-4,78,2,79,-82,-77,-37,-40
,529,2018/03/15 00:39:39.71,3439,3746,-15792,9,92,32,118,-83,-86,-50,-75
,530,2018/03/15 00:39:39.73,3452,3871,-15692,57,141,72,159,-84,-87,-99,-115
,531,2018/03/15 00:39:39.75,3306,3921,-15684,83,172,87,176,-89,-89,-127,-131
,532,2018/03/15 00:39:39.77,3285,3692,-15884,88,173,96,180,-85,-84,-130,-138
,533,2018/03/15 00:39:39.79,3355,3527,-16030,108,202,110,220,-94,-110,-155,-165
,534,2018/03/15 00:39:39.81,3445,3350,-16449,97,238,80,230,-141,-150,-167,-155
,535,2018/03/15 00:39:39.83,3698,3464,-16066,44,198,32,185,-154,-153,-121,-108
,536,2018/03/15 00:39:39.85,3768,3062,-16014,11,168,-18,149,-157,-167,-89,-65
,537,2018/03/15 00:39:39.87,3830,2501,-15866,-65,101,-132,32,-166,-164,-18,50
,538,2018/03/15 00:39:39.89,3851,2197,-15638,-203,-39,-257,-93,-164,-164,121,175
,539,2018/03/15 00:39:39.91,3873,1592,-15627,-294,-130,-327,-162,-164,-165,212,244
,540,2018/03/15 00:39:39.93,3905,1100,-15047,-361,-189,-382,-200,-172,-182,275,291
,541,2018/03/15 00:39:39.95,3884,777,-15496,-398,-207,-400,-203,-191,-197,302,301
,542,2018/03/15 00:39:39.97,4025,961,-15739,-384,-184,-361,-155,-200,-206,284,258
,543,2018/03/15 00:39:39.99,4264,958,-15473,-318,-106,-270,-64,-212,-206,212,167
,544,2018/03/15 00:39:40.01,4298,1065,-15605,-223,-25,-175,10,-198,-185,124,82
,545,2018/03/15 00:39:40.03,4513,1222,-15614,-129,42,-85,73,-171,-158,43,6
,546,2018/03/15 00:39:40.05,4692,1332,-15744,-46,99,-18,111,-145,-129,-26,-46
,547,2018/03/15 00:39:40.07,4878,1637,-15835,6,123,16,129,-117,-113,-64,-72
,548,2018/03/15 00:39:40.09,4951,1753,-15834,22,139,27,151,-117,-124,-80,-89
,549,2018/03/15 00:39:40.11,4932,1944,-15939,44,178,64,206,-134,-142,-111,-135
,550,2018/03/15 00:39:40.13,4944,1929,-15948,82,233,113,269,-151,-156,-157,-191
,551,2018/03/15 00:39:40.15,4937,2035,-15979,138,294,129,284,-156,-155,-216,-206
,552,2018/03/15 00:39:40.17,4787,1962,-15796,107,262,87,254,-155,-167,-184,-170
,553,2018/03/15 00:39:40.19,4778,1806,-15668,80,254,72,251,-174,-179,-167,-161
,554,2018/03/15 00:39:40.21,4644,1668,-15655,80,249,87,258,-169,-171,-164,-172
,555,2018/03/15 00:39:40.23,4620,1768,-15583,86,252,56,222,-166,-166,-169,-139
,556,2018/03/15 00:39:40.25,4528,1987,-15338,30,196,6,170,-166,-164,-113,-88
,557,2018/03/15 00:39:40.27,4511,2079,-15327,-17,146,-76,82,-163,-158,-64,-3
,558,2018/03/15 00:39:40.29,4605,1984,-15470,-141,16,-193,-40,-157,-153,62,116
,559,2018/03/15 00:39:40.31,4657,2154,-15496,-240,-91,-306,-158,-149,-148,165,232
,560,2018/03/15 00:39:40.33,4747,2265,-15329,-391,-239,-474,-316,-152,-158,315,395
,561,2018/03/15 00:39:40.35,4711,2251,-15137,-537,-375,-606,-447,-162,-159,456,526
,562,2018/03/15 00:39:40.37,4904,2349,-15146,-688,-536,-760,-616,-152,-144,612,688
,563,2018/03/15 00:39:40.39,5043,2422,-15326,-797,-657,-794,-656,-140,-138,727,725
,564,2018/03/15 00:39:40.41,5155,2319,-15407,-792,-651,-803,-664,-141,-139,721,733
,565,2018/03/15 00:39:40.43,5268,2396,-15327,-804,-667,-783,-642,-137,-141,735,712
,566,2018/03/15 00:39:40.45,5431,2566,-15299,-751,-604,-735,-585,-147,-150,677,660
,567,2018/03/15 00:39:40.47,5528,2526,-15267,-726,-578,-719,-576,-148,-143,652,647
,568,2018/03/15 00:39:40.49,5684,2474,-15461,-729,-594,-751,-625,-135,-126,661,688
,569,2018/03/15 00:39:40.51,5895,2529,-15496,-777,-663,-817,-713,-114,-104,720,765
,570,2018/03/15 00:39:40.53,6040,2500,-15569,-876,-781,-949,-867,-95,-82,828,908
,571,2018/03/15 00:39:40.55,6234,2586,-15474,-1049,-984,-1167,-1119,-65,-48,1016,1143
,572,2018/03/15 00:39:40.57,6271,2689,-15405,-1295,-1264,-1456,-1439,-31,-17,1279,1447
,573,2018/03/15 00:39:40.59,6301,3033,-15434,-1656,-1648,-1832,-1828,-8,-4,1652,1830
,574,2018/03/15 00:39:40.61,6231,2947,-15219,-1947,-1946,-2005,-2005,-1,0,1946,2005
,575,2018/03/15 00:39:40.63,6134,2700,-15105,-2026,-2026,-2028,-2029,0,1,2026,2028
,576,2018/03/15 00:39:40.65,6017,2582,-15056,-2025,-2025,-2022,-2022,0,0,2025,2022
,577,2018/03/15 00:39:40.67,5824,2615,-14988,-2022,-2021,-2022,-2022,-1,0,2021,2022
,578,2018/03/15 00:39:40.69,5815,2597,-15102,-2023,-2023,-2024,-2024,0,0,2023,2024
,579,2018/03/15 00:39:40.71,5873,2655,-14974,-2024,-2024,-2024,-2024,0,0,2024,2024
,580,2018/03/15 00:39:40.73,5744,2658,-14882,-2025,-2024,-2025,-2024,-1,-1,2024,2024
,581,2018/03/15 00:39:40.75,5725,2707,-15039,-2025,-2024,-2025,-2025,-1,0,2024,2025
,582,2018/03/15 00:39:40.77,5726,2882,-14882,-2025,-2025,-2025,-2024,0,-1,2025,2024
,583,2018/03/15 00:39:40.79,5793,2884,-15154,-2025,-2019,-2025,-2003,-6,-22,2022,2014
,584,2018/03/15 00:39:40.81,5804,2902,-15167,-2025,-1998,-2025,-2007,-27,-18,2011,2016
,585,2018/03/15 00:39:40.83,5930,2793,-15210,-2025,-2018,-2026,-2024,-7,-2,2021,2025
,586,2018/03/15 00:39:40.85,5909,2811,-15328,-2026,-2027,-2026,-2027,1,1,2026,2026
,587,2018/03/15 00:39:40.87,5929,2593,-15339,-2026,-2026,-2026,-2025,0,-1,2026,2025
,588,2018/03/15 00:39:40.89,5900,2473,-15469,-2026,-2026,-2026,-2026,0,0,2026,2026
,589,2018/03/15 00:39:40.91,5694,2632,-15410,-2026,-2024,-2026,-2011,-2,-15,2025,2018
,590,2018/03/15 00:39:40.93,5509,2681,-15107,-2026,-1956,-2019,-1837,-70,-182,1991,1928
,591,2018/03/15 00:39:40.95,5370,2646,-15304,-1976,-1654,-1878,-1419,-322,-459,1815,1648
,592,2018/03/15 00:39:40.97,5276,2643,-15178,-1735,-1156,-1558,-900,-579,-658,1445,1229
,593,2018/03/15 00:39:40.99,5296,2549,-15578,-1379,-709,-1230,-656,-670,-574,1044,943
,594,2018/03/15 00:39:41.01,5255,2858,-15717,-1108,-707,-991,-731,-401,-260,907,861
,595,2018/03/15 00:39:41.03,5533,2459,-15729,-864,-689,-743,-624,-175,-119,776,683
,596,2018/03/15 00:39:41.05,5721,4419,-16043,-638,-567,-553,-519,-71,-34,602,536
,597,2018/03/15 00:39:41.07,5540,4706,-15674,-482,-480,-439,-456,-2,17,481,447
,598,2018/03/15 00:39:41.09,5311,4668,-15571,-431,-448,-465,-472,17,7,439,468
,599,2018/03/15 00:39:41.11,5243,4776,-15638,-484,-483,-522,-524,-1,2,483,523
,600,2018/03/15 00:39:41.13,5176,4951,-15595,-595,-603,-698,-714,8,16,599,706
,601,2018/03/15 00:39:41.15,5298,5073,-15940,-808,-832,-889,-921,24,32,820,905
,602,2018/03/15 00:39:41.17,5128,5232,-15940,-918,-963,-897,-957,45,60,940,927
,603,2018/03/15 00:39:41.19,4973,5063,-15804,-815,-891,-682,-770,76,88,853,726
,604,2018/03/15 00:39:41.21,4883,4595,-15466,-533,-623,-390,-475,90,85,578,432
,605,2018/03/15 00:39:41.23,4688,4015,-14927,-267,-355,-175,-270,88,95,311,222
,606,2018/03/15 00:39:41.25,4447,3622,-14742,-87,-185,14,-82,98,96,136,34
,607,2018/03/15 00:39:41.27,4199,3432,-15235,114,28,207,140,86,67,-71,-173
,608,2018/03/15 00:39:41.29,3816,3115,-15505,288,245,374,346,43,28,-266,-360
,609,2018/03/15 00:39:41.31,3510,2795,-15448,452,435,530,530,17,0,-443,-530
,610,2018/03/15 00:39:41.33,3167,2296,-15135,614,627,676,697,-13,-21,-620,-686
,611,2018/03/15 00:39:41.35,2712,1608,-14941,721,743,755,775,-22,-20,-732,-765
,612,2018/03/15 00:39:41.37,2219,1374,-15119,787,814,814,852,-27,-38,-800,-833
,613,2018/03/15 00:39:41.39,1837,1542,-15523,838,888,874,926,-50,-52,-863,-900
,614,2018/03/15 00:39:41.41,1587,1551,-15936,916,972,906,958,-56,-52,-944,-932
,615,2018/03/15 00:39:41.43,1415,1652,-16081,850,909,860,908,-59,-48,-879,-884
,616,2018/03/15 00:39:41.45,1364,1710,-15991,906,962,996,1056,-56,-60,-934,-1026
,617,2018/03/15 00:39:41.47,1347,2030,-15991,1106,1175,1174,1249,-69,-75,-1140,-1211
,618,2018/03/15 00:39:41.49,1318,2245,-16035,1186,1259,1273,1351,-73,-78,-1222,-1312
,619,2018/03/15 00:39:41.51,1298,2561,-16217,1415,1491,1483,1545,-76,-62,-1453,-1514
,620,2018/03/15 00:39:41.53,1228,2678,-16211,1446,1520,1357,1446,-74,-89,-1483,-1401
,621,2018/03/15 00:39:41.55,1118,2640,-16354,1310,1412,1303,1408,-102,-105,-1361,-1355
,622,2018/03/15 00:39:41.57,1032,2648,-16212,1337,1441,1338,1444,-104,-106,-1389,-1391
,623,2018/03/15 00:39:41.59,977,2519,-16168,1317,1433,1338,1466,-116,-128,-1375,-1402
,624,2018/03/15 00:39:41.61,873,2501,-16212,1329,1463,1296,1425,-134,-129,-1396,-1360
,625,2018/03/15 00:39:41.63,840,2629,-15947,1289,1414,1288,1415,-125,-127,-1351,-1351
,626,2018/03/15 00:39:41.65,853,2868,-15812,1280,1410,1287,1420,-130,-133,-1345,-1353
,627,2018/03/15 00:39:41.67,616,2600,-16387,1284,1425,1279,1430,-141,-151,-1354,-1354
,628,2018/03/15 00:39:41.69,238,2253,-17114,1278,1431,1290,1434,-153,-144,-1354,-1362
,629,2018/03/15 00:39:41.71,58,2352,-16484,1280,1421,1262,1417,-141,-155,-1350,-1339
,630,2018/03/15 00:39:41.73,-113,2390,-16172,1264,1433,1269,1445,-169,-176,-1348,-1357
,631,2018/03/15 00:39:41.75,-72,2506,-15693,1257,1437,1182,1360,-180,-178,-1347,-1271
,632,2018/03/15 00:39:41.77,-108,2686,-15477,1057,1232,969,1143,-175,-174,-1144,-1056
,633,2018/03/15 00:39:41.79,-190,2876,-15601,935,1115,941,1132,-180,-191,-1025,-1036
,634,2018/03/15 00:39:41.81,-236,2986,-15962,968,1162,976,1161,-194,-185,-1065,-1068
,635,2018/03/15 00:39:41.83,-370,3000,-16073,973,1149,953,1133,-176,-180,-1061,-1043
,636,2018/03/15 00:39:41.85,-274,3453,-15789,963,1134,961,1132,-171,-171,-1048,-1046
,637,2018/03/15 00:39:41.87,-235,3615,-15760,951,1134,876,1057,-183,-181,-1042,-966
,638,2018/03/15 00:39:41.89,-311,3703,-15832,820,1006,812,985,-186,-173,-913,-898
,639,2018/03/15 00:39:41.91,-194,3735,-15753,820,982,833,1015,-162,-182,-901,-924
,640,2018/03/15 00:39:41.93,-10,3898,-15641,854,1050,871,1062,-196,-191,-952,-966
,641,2018/03/15 00:39:41.95,184,4096,-15809,871,1058,833,1026,-187,-193,-964,-929
,642,2018/03/15 00:39:41.97,282,4166,-16080,802,1004,815,1024,-202,-209,-903,-919
,643,2018/03/15 00:39:41.99,352,4170,-16299,840,1036,864,1037,-196,-173,-938,-950
,644,2018/03/15 00:39:42.01,588,4164,-16324,855,1002,767,900,-147,-133,-928,-833
,645,2018/03/15 00:39:42.03,697,4156,-16170,649,777,570,697,-128,-127,-713,-633
,646,2018/03/15 00:39:42.05,757,3946,-16057,552,689,598,748,-137,-150,-620,-673
,647,2018/03/15 00:39:42.07,744,3761,-16129,680,846,752,934,-166,-182,-763,-843
,648,2018/03/15 00:39:42.09,641,3526,-16249,810,1004,844,1040,-194,-196,-907,-942
,649,2018/03/15 00:39:42.11,596,3372,-16217,870,1068,877,1087,-198,-210,-969,-982
,650,2018/03/15 00:39:42.13,481,3190,-16260,872,1091,874,1081,-219,-207,-981,-977
,651,2018/03/15 00:39:42.15,492,3206,-16247,881,1075,892,1076,-194,-184,-978,-984
,652,2018/03/15 00:39:42.17,314,3162,-16112,904,1095,907,1104,-191,-197,-999,-1005
,653,2018/03/15 00:39:42.19,240,3152,-16023,896,1096,885,1081,-200,-196,-996,-983
,654,2018/03/15 00:39:42.21,215,3097,-16069,868,1063,852,1049,-195,-197,-965,-950
,655,2018/03/15 00:39:42.23,142,3033,-16122,830,1031,811,1010,-201,-199,-930,-910
,656,2018/03/15 00:39:42.25,76,3002,-16075,778,975,775,962,-197,-187,-876,-868
,657,2018/03/15 00:39:42.27,39,2940,-15978,757,942,740,929,-185,-189,-849,-834
,658,2018/03/15 00:39:42.29,-55,3054,-15976,709,904,682,880,-195,-198,-806,-781
,659,2018/03/15 00:39:42.31,-222,3111,-16250,651,852,640,851,-201,-211,-751,-745
,660,2018/03/15 00:39:42.33,-380,3110,-16174,617,830,597,807,-213,-210,-723,-702
,661,2018/03/15 00:39:42.35,-574,3167,-15965,597,799,587,786,-202,-199,-698,-686
,662,2018/03/15 00:39:42.37,-579,3299,-15680,572,763,572,761,-191,-189,-667,-666
,663,2018/03/15 00:39:42.39,-498,3407,-15476,566,758,539,729,-192,-190,-662,-634
,664,2018/03/15 00:39:42.41,-382,3530,-15371,531,717,524,710,-186,-186,-624,-617
,665,2018/03/15 00:39:42.43,-185,3770,-15237,502,686,468,653,-184,-185,-594,-560
,666,2018/03/15 00:39:42.45,3,4028,-15494,427,612,396,576,-185,-180,-519,-486
,667,2018/03/15 00:39:42.47,110,4068,-15997,373,549,362,537,-176,-175,-461,-449
,668,2018/03/15 00:39:42.49,215,4092,-16117,365,537,363,531,-172,-168,-451,-447
,669,2018/03/15 00:39:42.51,384,4121,-16047,338,511,310,484,-173,-174,-424,-397
,670,2018/03/15 00:39:42.53,386,4174,-16029,298,474,286,460,-176,-174,-386,-373
,671,2018/03/15 00:39:42.55,448,4175,-15906,285,461,305,483,-176,-178,-373,-394
,672,2018/03/15 00:39:42.57,565,4300,-15895,306,476,281,467,-170,-186,-391,-374
,673,2018/03/15 00:39:42.59,640,4479,-15928,283,480,309,491,-197,-182,-381,-400
,674,2018/03/15 00:39:42.61,625,4429,-16038,330,502,320,497,-172,-177,-416,-408
,675,2018/03/15 00:39:42.63,630,4286,-16008,283,459,169,348,-176,-179,-371,-258
,676,2018/03/15 00:39:42.65,603,4324,-16078,32,222,-80,118,-190,-198,-127,-19
,677,2018/03/15 00:39:42.67,607,4288,-16092,-147,54,-201,-8,-201,-193,46,104
,678,2018/03/15 00:39:42.69,567,4209,-16029,-221,-48,-194,-34,-173,-160,134,114
,679,2018/03/15 00:39:42.71,613,4106,-15983,-143,2,-133,-2,-145,-131,70,67
,680,2018/03/15 00:39:42.73,625,4011,-15945,-164,-32,-197,-62,-132,-135,98,129
,681,2018/03/15 00:39:42.75,593,4005,-15850,-181,-44,-120,23,-137,-143,112,48
,682,2018/03/15 00:39:42.77,598,3884,-15793,-27,118,86,229,-145,-143,-45,-157
,683,2018/03/15 00:39:42.79,610,3889,-15780,187,332,259,403,-145,-144,-259,-331
,684,2018/03/15 00:39:42.81,722,3964,-15820,314,460,359,503,-146,-144,-387,-431
,685,2018/03/15 00:39:42.83,756,4053,-15842,398,537,432,567,-139,-135,-467,-499
,686,2018/03/15 00:39:42.85,749,4084,-15810,453,589,469,611,-136,-142,-521,-540
,687,2018/03/15 00:39:42.87,740,4046,-15872,475,621,468,623,-146,-155,-548,-545
,688,2018/03/15 00:39:42.89,707,4108,-15841,464,623,465,621,-159,-156,-543,-543
,689,2018/03/15 00:39:42.91,785,4028,-15803,467,616,465,607,-149,-142,-541,-536
,690,2018/03/15 00:39:42.93,860,4032,-15722,465,608,464,613,-143,-149,-536,-538
,691,2018/03/15 00:39:42.95,950,3978,-15791,458,612,449,603,-154,-154,-535,-526
,692,2018/03/15 00:39:42.97,1056,3935,-15819,433,588,424,579,-155,-155,-510,-501
,693,2018/03/15 00:39:42.99,1004,3886,-15915,428,579,425,578,-151,-153,-503,-501
,694,2018/03/15 00:39:43.01,1095,3971,-15970,419,576,408,568,-157,-160,-497,-488
,695,2018/03/15 00:39:43.03,1127,3822,-15990,393,560,387,556,-167,-169,-476,-471
,696,2018/03/15 00:39:43.05,1172,3746,-16064,364,540,356,529,-176,-173,-452,-442
,697,2018/03/15 00:39:43.07,1200,3738,-16173,336,512,345,521,-176,-176,-424,-433
,698,2018/03/15 00:39:43.09,1256,3698,-16118,342,518,337,522,-176,-185,-430,-429
,699,2018/03/15 00:39:43.11,1251,3591,-16159,334,518,324,514,-184,-190,-426,-419
,700,2018/03/15 00:39:43.13,1259,3569,-16203,317,504,313,508,-187,-195,-410,-410
,701,2018/03/15 00:39:43.15,1203,3441,-16180,310,510,304,512,-200,-208,-410,-408
,702,2018/03/15 00:39:43.17,1185,3289,-16283,300,506,308,500,-206,-192,-403,-404
,703,2018/03/15 00:39:43.19,1100,3331,-16154,311,496,304,490,-185,-186,-403,-397
,704,2018/03/15 00:39:43.21,1068,3332,-15983,297,484,287,477,-187,-190,-390,-382
,705,2018/03/15 00:39:43.23,959,3309,-16079,278,467,281,462,-189,-181,-372,-371
,706,2018/03/15 00:39:43.25,893,3224,-16131,284,459,283,458,-175,-175,-371,-370
,707,2018/03/15 00:39:43.27,890,3246,-16118,277,458,272,453,-181,-181,-367,-362
,708,2018/03/15 00:39:43.29,772,3237,-16076,265,445,233,428,-180,-195,-355,-330
,709,2018/03/15 00:39:43.31,689,3145,-16046,204,409,182,386,-205,-204,-306,-284
,710,2018/03/15 00:39:43.33,688,3107,-16074,154,359,130,335,-205,-205,-256,-232
,711,2018/03/15 00:39:43.35,497,3064,-16105,120,325,128,338,-205,-210,-222,-233
,712,2018/03/15 00:39:43.37,323,3106,-16053,151,367,176,397,-216,-221,-259,-286
,713,2018/03/15 00:39:43.39,305,3120,-16032,196,423,207,437,-227,-230,-309,-322
,714,2018/03/15 00:39:43.41,167,3340,-15965,223,447,244,456,-224,-212,-335,-350
,715,2018/03/15 00:39:43.43,185,3329,-15881,251,457,253,462,-206,-209,-354,-357
,716,2018/03/15 00:39:43.45,112,3672,-15736,261,477,242,472,-216,-230,-369,-357
,717,2018/03/15 00:39:43.47,-24,3703,-15876,229,458,209,422,-229,-213,-343,-315
,718,2018/03/15 00:39:43.49,-5,3737,-15927,216,424,204,415,-208,-211,-320,-309
,719,2018/03/15 00:39:43.51,31,3774,-15909,185,408,173,391,-223,-218,-296,-282
,720,2018/03/15 00:39:43.53,127,3818,-15986,170,376,180,371,-206,-191,-273,-275
,721,2018/03/15 00:39:43.55,156,3843,-15979,184,371,177,367,-187,-190,-277,-272
,722,2018/03/15 00:39:43.57,200,3704,-15926,167,361,157,352,-194,-195,-264,-254
,723,2018/03/15 00:39:43.59,267,3825,-15971,160,348,160,344,-188,-184,-254,-252
,724,2018/03/15 00:39:43.61,256,3837,-15951,160,350,161,352,-190,-191,-255,-256
,725,2018/03/15 00:39:43.63,222,3845,-15959,160,346,162,344,-186,-182,-253,-253
,726,2018/03/15 00:39:43.65,256,3898,-15962,166,346,163,350,-180,-187,-256,-256
,727,2018/03/15 00:39:43.67,275,3876,-16009,154,343,138,322,-189,-184,-248,-230
,728,2018/03/15 00:39:43.69,326,3994,-15989,140,317,142,316,-177,-174,-228,-229
,729,2018/03/15 00:39:43.71,264,4045,-15965,139,310,130,310,-171,-180,-224,-220
,730,2018/03/15 00:39:43.73,228,3863,-16004,122,310,113,308,-188,-195,-216,-210
,731,2018/03/15 00:39:43.75,152,4017,-15976,106,309,101,300,-203,-199,-207,-200
,732,2018/03/15 00:39:43.77,225,4007,-16056,98,287,92,276,-189,-184,-192,-184
,733,2018/03/15 00:39:43.79,128,3883,-16044,89,272,88,277,-183,-189,-180,-182
,734,2018/03/15 00:39:43.81,68,3831,-15954,84,274,83,270,-190,-187,-179,-176
,735,2018/03/15 00:39:43.83,34,3956,-15861,84,267,80,259,-183,-179,-175,-169
,736,2018/03/15 00:39:43.85,137,3989,-15757,79,257,88,267,-178,-179,-168,-177
,737,2018/03/15 00:39:43.87,61,3994,-15961,80,256,82,252,-176,-170,-168,-167
,738,2018/03/15 00:39:43.89,-9,3893,-15988,71,236,78,250,-165,-172,-153,-164
,739,2018/03/15 00:39:43.91,-52,3907,-15991,74,252,69,256,-178,-187,-163,-162
,740,2018/03/15 00:39:43.93,-85,3861,-15919,71,252,83,247,-181,-164,-161,-165
,741,2018/03/15 00:39:43.95,-179,3898,-15841,110,246,134,249,-136,-115,-178,-191
,742,2018/03/15 00:39:43.97,-190,3847,-15828,144,251,143,251,-107,-108,-197,-197
,743,2018/03/15 00:39:43.99,-254,3769,-15793,144,256,140,256,-112,-116,-200,-198
,744,2018/03/15 00:39:44.01,-257,3854,-15807,131,253,127,252,-122,-125,-192,-189
,745,2018/03/15 00:39:44.03,-336,3880,-16035,123,251,114,247,-128,-133,-187,-180
,746,2018/03/15 00:39:44.05,-229,3975,-15889,112,250,115,256,-138,-141,-181,-185
,747,2018/03/15 00:39:44.07,-233,4047,-15876,114,258,108,253,-144,-145,-186,-180
,748,2018/03/15 00:39:44.09,-173,4076,-15835,96,242,89,239,-146,-150,-169,-164
,749,2018/03/15 00:39:44.11,-198,4017,-15819,87,242,94,249,-155,-155,-164,-171
,750,2018/03/15 00:39:44.13,-79,3964,-15875,100,249,101,246,-149,-145,-174,-173
,751,2018/03/15 00:39:44.15,-135,3898,-15997,99,247,88,243,-148,-155,-173,-165
,752,2018/03/15 00:39:44.17,-203,3890,-15956,81,244,81,243,-163,-162,-162,-162
,753,2018/03/15 00:39:44.19,-176,3753,-15900,80,237,77,229,-157,-152,-158,-153
,754,2018/03/15 00:39:44.21,-88,3762,-15916,69,228,49,231,-159,-182,-148,-140
,755,2018/03/15 00:39:44.23,-121,3764,-15909,20,233,-6,236,-213,-242,-126,-115
,756,2018/03/15 00:39:44.25,-110,3836,-15869,-17,241,-19,244,-258,-263,-112,-112
,757,2018/03/15 00:39:44.27,-132,3957,-15867,-5,251,-8,243,-256,-251,-123,-117
,758,2018/03/15 00:39:44.29,-78,3930,-15801,-12,234,-32,210,-246,-242,-111,-89
,759,2018/03/15 00:39:44.31,-40,3929,-15889,-27,215,-26,214,-242,-240,-94,-94
,760,2018/03/15 00:39:44.33,13,3882,-16008,-15,224,-17,222,-239,-239,-104,-102
,761,2018/03/15 00:39:44.35,14,3904,-16012,-9,231,-3,234,-240,-237,-111,-115
,762,2018/03/15 00:39:44.37,13,3925,-15923,3,234,8,233,-231,-225,-118,-120
,763,2018/03/15 00:39:44.39,40,4004,-16191,14,239,20,244,-225,-224,-126,-132
,764,2018/03/15 00:39:44.41,81,3906,-16028,24,247,26,246,-223,-220,-135,-136
,765,2018/03/15 00:39:44.43,166,3832,-15974,26,240,20,230,-214,-210,-133,-125
,766,2018/03/15 00:39:44.45,179,3824,-16097,16,224,16,223,-208,-207,-120,-119
,767,2018/03/15 00:39:44.47,47,3390,-15898,24,229,32,230,-205,-198,-126,-131
,768,2018/03/15 00:39:44.49,204,3699,-15918,32,224,33,220,-192,-187,-128,-126
,769,2018/03/15 00:39:44.51,227,3860,-15951,36,218,41,222,-182,-181,-127,-131
,770,2018/03/15 00:39:44.53,275,3819,-16041,48,223,48,217,-175,-169,-135,-132
,771,2018/03/15 00:39:44.55,260,3824,-16021,43,213,41,214,-170,-173,-128,-127
,772,2018/03/15 00:39:44.57,236,3883,-16062,37,214,34,214,-177,-180,-125,-124
,773,2018/03/15 00:39:44.59,217,3855,-16072,36,214,40,217,-178,-177,-125,-128
,774,2018/03/15 00:39:44.61,306,3857,-15918,42,215,47,209,-173,-162,-128,-128
,775,2018/03/15 00:39:44.63,269,3779,-15973,52,207,60,210,-155,-150,-129,-135
,776,2018/03/15 00:39:44.65,279,3767,-15982,66,217,63,218,-151,-155,-141,-140
,777,2018/03/15 00:39:44.67,289,3815,-15922,55,209,62,210,-154,-148,-132,-136
,778,2018/03/15 00:39:44.69,138,3814,-15940,57,206,65,216,-149,-151,-131,-140
,779,2018/03/15 00:39:44.71,267,3860,-15920,64,210,77,224,-146,-147,-137,-150
,780,2018/03/15 00:39:44.73,200,3892,-15983,69,215,58,205,-146,-147,-142,-131
,781,2018/03/15 00:39:44.75,185,3944,-15991,63,203,59,202,-140,-143,-133,-130
,782,2018/03/15 00:39:44.77,253,3945,-15865,51,197,46,200,-146,-154,-124,-123
,783,2018/03/15 00:39:44.79,200,3928,-15898,42,202,42,203,-160,-161,-122,-122
,784,2018/03/15 00:39:44.81,268,3948,-15913,44,202,47,200,-158,-153,-123,-123
,785,2018/03/15 00:39:44.83,231,3922,-15899,44,196,38,194,-152,-156,-120,-116
,786,2018/03/15 00:39:44.85,244,3891,-15883,34,195,33,192,-161,-159,-114,-112
,787,2018/03/15 00:39:44.87,245,3879,-15916,32,190,35,190,-158,-155,-111,-112
,788,2018/03/15 00:39:44.89,213,3971,-15886,35,190,34,190,-155,-156,-112,-112
,789,2018/03/15 00:39:44.91,282,4128,-15913,35,190,34,187,-155,-153,-112,-110
,790,2018/03/15 00:39:44.93,286,4116,-15836,32,184,27,182,-152,-155,-108,-104
,791,2018/03/15 00:39:44.95,291,4136,-15835,26,186,30,185,-160,-155,-106,-107
,792,2018/03/15 00:39:44.97,319,4225,-15921,28,178,33,184,-150,-151,-103,-108
,793,2018/03/15 00:39:44.99,334,4167,-15932,32,183,32,184,-151,-152,-107,-108
,794,2018/03/15 00:39:45.01,270,4160,-15923,40,192,49,194,-152,-145,-116,-121
,795,2018/03/15 00:39:45.03,253,4098,-15967,46,187,40,187,-141,-147,-116,-113
,796,2018/03/15 00:39:45.05,192,4111,-15950,36,187,36,187,-151,-151,-111,-111
,797,2018/03/15 00:39:45.07,175,3957,-15968,42,190,40,188,-148,-148,-116,-114
,798,2018/03/15 00:39:45.09,120,3923,-15851,42,190,41,199,-148,-158,-116,-120
,799,2018/03/15 00:39:45.11,167,3922,-15791,41,200,18,165,-159,-147,-120,-91
,800,2018/03/15 00:39:45.13,199,4062,-15846,25,169,31,176,-144,-145,-97,-103
,801,2018/03/15 00:39:45.15,193,4126,-15937,36,180,47,179,-144,-132,-108,-113
,802,2018/03/15 00:39:45.17,180,4074,-15917,50,179,53,185,-129,-132,-114,-119
,803,2018/03/15 00:39:45.19,140,4014,-15922,54,189,56,189,-135,-133,-121,-122
,804,2018/03/15 00:39:45.21,161,3988,-15858,49,187,36,173,-138,-137,-118,-104
,805,2018/03/15 00:39:45.23,13,4061,-15911,31,166,34,172,-135,-138,-98,-103
,806,2018/03/15 00:39:45.25,53,3982,-15900,30,170,26,170,-140,-144,-100,-98
,807,2018/03/15 00:39:45.27,22,4027,-15863,23,173,22,174,-150,-152,-98,-98
,808,2018/03/15 00:39:45.29,246,4037,-15852,21,176,14,173,-155,-159,-98,-93
,809,2018/03/15 00:39:45.31,156,4077,-15829,9,170,13,170,-161,-157,-89,-91
,810,2018/03/15 00:39:45.33,148,4126,-15841,16,172,23,177,-156,-154,-94,-100
,811,2018/03/15 00:39:45.35,196,4159,-15822,22,173,25,176,-151,-151,-97,-100
,812,2018/03/15 00:39:45.37,164,4241,-15879,21,173,12,168,-152,-156,-97,-90
,813,2018/03/15 00:39:45.39,226,4276,-15848,12,169,12,170,-157,-158,-90,-91
,814,2018/03/15 00:39:45.41,209,4261,-15829,15,174,11,167,-159,-156,-94,-89
,815,2018/03/15 00:39:45.43,185,4249,-15867,8,164,6,160,-156,-154,-86,-83
,816,2018/03/15 00:39:45.45,222,4281,-15820,11,160,16,163,-149,-147,-85,-89
,817,2018/03/15 00:39:45.47,340,4209,-15819,17,164,12,160,-147,-148,-90,-86
,818,2018/03/15 00:39:45.49,260,4182,-15797,12,161,25,174,-149,-149,-86,-99
,819,2018/03/15 00:39:45.51,285,4215,-15845,16,164,16,162,-148,-146,-90,-89
,820,2018/03/15 00:39:45.53,293,4166,-15905,10,152,20,172,-142,-152,-81,-96
,821,2018/03/15 00:39:45.55,334,4176,-15909,13,173,2,168,-160,-166,-93,-85
,822,2018/03/15 00:39:45.57,366,4162,-15844,9,170,19,174,-161,-155,-89,-96
,823,2018/03/15 00:39:45.59,326,4150,-15823,27,175,27,177,-148,-150,-101,-102
,824,2018/03/15 00:39:45.61,404,4143,-15852,24,177,21,175,-153,-154,-100,-98
,825,2018/03/15 00:39:45.63,381,4183,-15947,20,172,18,168,-152,-150,-96,-93
,826,2018/03/15 00:39:45.65,310,4119,-15872,14,164,18,164,-150,-146,-89,-91
,827,2018/03/15 00:39:45.67,367,4098,-15922,21,161,21,160,-140,-139,-91,-90
,828,2018/03/15 00:39:45.69,464,4148,-15787,20,163,19,169,-143,-150,-91,-94
,829,2018/03/15 00:39:45.71,439,4205,-15819,18,174,18,172,-156,-154,-96,-95
,830,2018/03/15 00:39:45.73,333,4121,-15916,23,169,28,170,-146,-142,-96,-99
,831,2018/03/15 00:39:45.75,355,4079,-15993,29,168,30,169,-139,-139,-98,-99
,832,2018/03/15 00:39:45.77,474,3997,-15936,31,173,31,176,-142,-145,-102,-103
,833,2018/03/15 00:39:45.79,399,3903,-15900,30,177,32,179,-147,-147,-103,-105
,834,2018/03/15 00:39:45.81,418,3924,-15923,36,182,26,171,-146,-145,-109,-98
,835,2018/03/15 00:39:45.83,448,3902,-15945,17,161,17,160,-144,-143,-89,-88
,836,2018/03/15 00:39:45.85,472,3964,-15948,21,168,19,169,-147,-150,-94,-94
,837,2018/03/15 00:39:45.87,472,4040,-16019,17,162,14,155,-145,-141,-89,-84
,838,2018/03/15 00:39:45.89,453,4092,-15887,10,153,12,160,-143,-148,-81,-86
,839,2018/03/15 00:39:45.91,441,4099,-15918,30,173,19,160,-143,-141,-101,-89
,840,2018/03/15 00:39:45.93,425,4087,-15960,11,153,2,141,-142,-139,-82,-71
,841,2018/03/15 00:39:45.95,428,4101,-15896,8,149,11,154,-141,-143,-78,-82
,842,2018/03/15 00:39:45.97,400,4094,-15879,14,155,25,163,-141,-138,-84,-94
,843,2018/03/15 00:39:45.99,394,4078,-15910,25,163,19,158,-138,-139,-94,-88
,844,2018/03/15 00:39:46.01,323,4027,-15937,18,160,19,162,-142,-143,-89,-90
,845,2018/03/15 00:39:46.03,321,3891,-15959,16,162,9,157,-146,-148,-89,-83
,846,2018/03/15 00:39:46.05,239,3846,-15916,6,152,14,160,-146,-146,-79,-87
,847,2018/03/15 00:39:46.07,241,3709,-15940,19,160,22,157,-141,-135,-89,-89
,848,2018/03/15 00:39:46.09,282,3693,-15899,25,159,30,164,-134,-134,-92,-97
,849,2018/03/15 00:39:46.11,222,3625,-15932,33,172,26,166,-139,-140,-102,-96
,850,2018/03/15 00:39:46.13,199,3554,-15913,18,151,16,150,-133,-134,-84,-83
,851,2018/03/15 00:39:46.15,233,3549,-15952,3,144,0,143,-141,-143,-73,-71
,852,2018/03/15 00:39:46.17,147,3507,-16016,6,151,14,159,-145,-145,-78,-86
,853,2018/03/15 00:39:46.19,216,3518,-15955,21,168,26,169,-147,-143,-94,-97
,854,2018/03/15 00:39:46.21,211,3567,-16044,28,165,26,161,-137,-135,-96,-93
,855,2018/03/15 00:39:46.23,169,3546,-16014,23,157,22,159,-134,-137,-90,-90
,856,2018/03/15 00:39:46.25,194,3412,-16073,18,162,14,164,-144,-150,-90,-89
,857,2018/03/15 00:39:46.27,254,3319,-16040,11,167,4,159,-156,-155,-89,-81
,858,2018/03/15 00:39:46.29,247,3272,-15888,-4,143,-6,138,-147,-144,-69,-66
,859,2018/03/15 00:39:46.31,241,3365,-15847,-6,140,0,149,-146,-149,-67,-74
,860,2018/03/15 00:39:46.33,203,3493,-15929,-10,136,-7,138,-146,-145,-63,-65
,861,2018/03/15 00:39:46.35,314,3496,-16097,-9,128,1,147,-137,-146,-59,-74
,862,2018/03/15 00:39:46.37,263,3572,-16063,-4,145,-5,146,-149,-151,-70,-70
,863,2018/03/15 00:39:46.39,214,3562,-16014,-4,146,2,151,-150,-149,-71,-76
,864,2018/03/15 00:39:46.41,317,3551,-15940,-2,146,-12,138,-148,-150,-72,-63
,865,2018/03/15 00:39:46.43,252,3576,-15975,-19,132,-14,134,-151,-148,-56,-60
,866,2018/03/15 00:39:46.45,354,3602,-15980,-5,143,-6,141,-148,-147,-69,-67
,867,2018/03/15 00:39:46.47,337,3664,-16001,-16,134,-17,134,-150,-151,-59,-58
,868,2018/03/15 00:39:46.49,288,3668,-15997,-11,141,-16,138,-152,-154,-65,-61
,869,2018/03/15 00:39:46.51,392,3601,-15927,-28,133,-30,131,-161,-161,-52,-50
,870,2018/03/15 00:39:46.53,349,3651,-15922,-20,136,-8,143,-156,-151,-58,-67
,871,2018/03/15 00:39:46.55,427,3680,-15978,-8,136,-15,131,-144,-146,-64,-58
,872,2018/03/15 00:39:46.57,365,3708,-15936,-13,133,-14,130,-146,-144,-60,-58
,873,2018/03/15 00:39:46.59,447,3728,-15948,-11,130,-10,130,-141,-140,-59,-60
,874,2018/03/15 00:39:46.61,435,3814,-15965,-12,126,-16,128,-138,-144,-57,-56
,875,2018/03/15 00:39:46.63,453,3799,-15987,-26,118,-22,120,-144,-142,-46,-49
,876,2018/03/15 00:39:46.65,455,3787,-15935,-16,125,-13,127,-141,-140,-54,-57
,877,2018/03/15 00:39:46.67,528,3754,-15938,-8,133,-2,138,-141,-140,-62,-68
,878,2018/03/15 00:39:46.69,558,3730,-15975,-3,140,-8,127,-143,-135,-68,-59
,879,2018/03/15 00:39:46.71,548,3747,-15959,-21,115,-25,115,-136,-140,-47,-45
,880,2018/03/15 00:39:46.73,660,3677,-16018,-19,121,-23,117,-140,-140,-51,-47
,881,2018/03/15 00:39:46.75,732,3614,-16018,-17,125,-19,115,-142,-134,-54,-48
,882,2018/03/15 00:39:46.77,749,3687,-16011,-20,125,-26,125,-145,-151,-52,-49
,883,2018/03/15 00:39:46.79,832,3669,-16033,-32,118,-28,116,-150,-144,-43,-44
,884,2018/03/15 00:39:46.81,842,3692,-16063,-27,118,-26,124,-145,-150,-45,-49
,885,2018/03/15 00:39:46.83,803,3672,-15987,-23,129,-18,132,-152,-150,-53,-57
,886,2018/03/15 00:39:46.85,844,3733,-16042,-12,136,-14,136,-148,-150,-62,-61
,887,2018/03/15 00:39:46.87,852,3757,-15982,-15,137,-19,127,-152,-146,-61,-54
,888,2018/03/15 00:39:46.89,885,3653,-15905,-20,120,-17,122,-140,-139,-50,-52
,889,2018/03/15 00:39:46.91,893,3765,-15832,-14,127,-13,130,-141,-143,-56,-58
,890,2018/03/15 00:39:46.93,822,3798,-15922,-9,136,-6,143,-145,-149,-63,-68
,891,2018/03/15 00:39:46.95,867,3837,-16085,-4,143,-4,144,-147,-148,-69,-70
,892,2018/03/15 00:39:46.97,767,3795,-16000,-8,136,-9,130,-144,-139,-64,-60
,893,2018/03/15 00:39:46.99,758,3783,-15911,-6,134,-4,141,-140,-145,-64,-68
,894,2018/03/15 00:39:47.01,769,3791,-15957,-6,138,-6,137,-144,-143,-66,-65
,895,2018/03/15 00:39:47.03,763,3799,-15960,-3,137,0,138,-140,-138,-67,-69
,896,2018/03/15 00:39:47.05,759,3827,-16023,6,144,8,146,-138,-138,-75,-77
,897,2018/03/15 00:39:47.07,674,3784,-15977,8,147,7,152,-139,-145,-77,-79
,898,2018/03/15 00:39:47.09,706,3771,-15978,3,146,2,140,-143,-138,-74,-71
,899,2018/03/15 00:39:47.11,640,3724,-15911,2,139,5,146,-137,-141,-70,-75
,900,2018/03/15 00:39:47.13,707,3704,-15955,9,150,16,161,-141,-145,-79,-88
,901,2018/03/15 00:39:47.15,702,3720,-15902,6,150,1,147,-144,-146,-78,-74
,902,2018/03/15 00:39:47.17,708,3709,-15989,-3,137,-3,142,-140,-145,-67,-69
,903,2018/03/15 00:39:47.19,709,3696,-16010,0,143,-2,137,-143,-139,-71,-67
,904,2018/03/15 00:39:47.21,715,3669,-16013,4,139,6,141,-135,-135,-71,-73
,905,2018/03/15 00:39:47.23,689,3677,-15979,3,142,-2,141,-139,-143,-72,-69
,906,2018/03/15 00:39:47.25,708,3665,-16014,-3,143,1,143,-146,-142,-70,-72
,907,2018/03/15 00:39:47.27,713,3655,-15922,7,148,4,150,-141,-146,-77,-77
,908,2018/03/15 00:39:47.29,696,3660,-16007,-4,144,-3,145,-148,-148,-70,-71
,909,2018/03/15 00:39:47.31,690,3647,-16020,-4,141,-7,137,-145,-144,-68,-65
,910,2018/03/15 00:39:47.33,714,3652,-15997,-7,137,-5,137,-144,-142,-65,-66
,911,2018/03/15 00:39:47.35,640,3682,-16020,-3,139,-2,140,-142,-142,-68,-69
,912,2018/03/15 00:39:47.37,602,3657,-15987,-2,142,-2,144,-144,-146,-70,-71
,913,2018/03/15 00:39:47.39,636,3658,-16007,-3,148,-7,154,-151,-161,-72,-73
,914,2018/03/15 00:39:47.41,653,3693,-15917,-10,159,-8,163,-169,-171,-74,-77
,915,2018/03/15 00:39:47.43,627,3723,-15935,-6,164,-4,163,-170,-167,-79,-79
,916,2018/03/15 00:39:47.45,548,3736,-16016,-5,162,-6,160,-167,-166,-78,-77
,917,2018/03/15 00:39:47.47,549,3737,-15966,-1,158,4,158,-159,-154,-78,-81
,918,2018/03/15 00:39:47.49,618,3610,-15933,4,156,4,156,-152,-152,-80,-80
,919,2018/03/15 00:39:47.51,614,3692,-15803,-2,151,-1,150,-153,-151,-74,-74
,920,2018/03/15 00:39:47.53,619,3748,-15905,3,153,2,154,-150,-152,-78,-78
,921,2018/03/15 00:39:47.55,600,3652,-16069,6,161,-7,145,-155,-152,-83,-69
,922,2018/03/15 00:39:47.57,617,3612,-16041,-7,144,-7,137,-151,-144,-68,-65
,923,2018/03/15 00:39:47.59,636,3713,-15941,-9,149,-8,160,-158,-168,-70,-76
,924,2018/03/15 00:39:47.61,623,3619,-16040,-16,159,-14,179,-175,-193,-71,-82
,925,2018/03/15 00:39:47.63,740,3604,-16043,-32,192,-95,137,-224,-232,-80,-21
,926,2018/03/15 00:39:47.65,709,3606,-16044,-206,19,-336,-120,-225,-216,93,228
,927,2018/03/15 00:39:47.67,686,3674,-15981,-430,-216,-480,-267,-214,-213,323,373
,928,2018/03/15 00:39:47.69,712,3631,-16061,-521,-313,-572,-369,-208,-203,417,470
,929,2018/03/15 00:39:47.71,713,3621,-15986,-612,-414,-638,-451,-198,-187,513,544
,930,2018/03/15 00:39:47.73,690,3548,-16055,-659,-487,-662,-501,-172,-161,573,581
,931,2018/03/15 00:39:47.75,616,3615,-15935,-623,-469,-551,-398,-154,-153,546,474
,932,2018/03/15 00:39:47.77,757,3509,-15956,-457,-309,-363,-220,-148,-143,383,291
,933,2018/03/15 00:39:47.79,702,3528,-16034,-280,-146,-209,-86,-134,-123,213,147
,934,2018/03/15 00:39:47.81,677,3605,-15998,-147,-34,-91,15,-113,-106,90,38
,935,2018/03/15 00:39:47.83,613,3617,-15991,-42,59,-3,96,-101,-99,-8,-46
,936,2018/03/15 00:39:47.85,634,3619,-16043,32,129,64,154,-97,-90,-80,-109
,937,2018/03/15 00:39:47.87,665,3634,-16034,94,171,116,188,-77,-72,-132,-152
,938,2018/03/15 00:39:47.89,560,3668,-16007,132,201,141,207,-69,-66,-166,-174
,939,2018/03/15 00:39:47.91,612,3643,-15971,149,209,154,210,-60,-56,-179,-182
,940,2018/03/15 00:39:47.93,530,3665,-15992,161,216,168,221,-55,-53,-188,-194
,941,2018/03/15 00:39:47.95,548,3690,-15971,180,226,198,240,-46,-42,-203,-219
,942,2018/03/15 00:39:47.97,536,3711,-16027,193,229,189,228,-36,-39,-211,-208
,943,2018/03/15 00:39:47.99,598,3691,-15986,179,217,177,224,-38,-47,-198,-200
,944,2018/03/15 00:39:48.01,514,3668,-16044,179,226,171,220,-47,-49,-202,-195
,945,2018/03/15 00:39:48.03,502,3597,-15985,175,227,167,226,-52,-59,-201,-196
,946,2018/03/15 00:39:48.05,473,3575,-16016,163,230,162,233,-67,-71,-196,-197
,947,2018/03/15 00:39:48.07,502,3584,-15964,157,232,149,229,-75,-80,-194,-189
,948,2018/03/15 00:39:48.09,511,3629,-16055,142,224,135,220,-82,-85,-183,-177
,949,2018/03/15 00:39:48.11,453,3476,-16028,127,213,119,209,-86,-90,-170,-164
,950,2018/03/15 00:39:48.13,441,3453,-16000,115,211,113,209,-96,-96,-163,-161
,951,2018/03/15 00:39:48.15,403,3494,-15890,112,208,108,211,-96,-103,-160,-159
,952,2018/03/15 00:39:48.17,439,3555,-15972,102,211,102,210,-109,-108,-156,-156
,953,2018/03/15 00:39:48.19,410,3618,-16022,103,208,100,205,-105,-105,-155,-152
,954,2018/03/15 00:39:48.21,404,3620,-16097,92,204,86,202,-112,-116,-148,-144
,955,2018/03/15 00:39:48.23,442,3529,-16033,80,198,73,191,-118,-118,-139,-132
,956,2018/03/15 00:39:48.25,346,3512,-16017,70,187,70,186,-117,-116,-128,-128
,957,2018/03/15 00:39:48.27,362,3423,-16034,68,189,67,188,-121,-121,-128,-127
,958,2018/03/15 00:39:48.29,397,3411,-15982,65,186,62,182,-121,-120,-125,-122
,959,2018/03/15 00:39:48.31,382,3450,-16020,59,179,54,171,-120,-117,-119,-112
,960,2018/03/15 00:39:48.33,387,3454,-16014,49,167,44,163,-118,-119,-108,-103
,961,2018/03/15 00:39:48.35,306,3440,-16058,42,158,44,155,-116,-111,-100,-99
,962,2018/03/15 00:39:48.37,332,3383,-15977,48,164,39,157,-116,-118,-106,-98
,963,2018/03/15 00:39:48.39,313,3441,-16017,39,158,39,154,-119,-115,-98,-96
,964,2018/03/15 00:39:48.41,372,3435,-16029,34,158,32,160,-124,-128,-96,-96
,965,2018/03/15 00:39:48.43,312,3458,-16047,28,153,34,157,-125,-123,-90,-95
,966,2018/03/15 00:39:48.45,321,3437,-16064,33,155,32,154,-122,-122,-94,-93
,967,2018/03/15 00:39:48.47,383,3443,-16020,26,146,24,144,-120,-120,-86,-84
,968,2018/03/15 00:39:48.49,338,3482,-16063,26,147,30,151,-121,-121,-86,-90
,969,2018/03/15 00:39:48.51,305,3461,-15994,27,150,22,144,-123,-122,-88,-83
,970,2018/03/15 00:39:48.53,382,3457,-15996,22,145,26,150,-123,-124,-83,-88
,971,2018/03/15 00:39:48.55,353,3450,-16019,25,153,25,154,-128,-129,-89,-89
,972,2018/03/15 00:39:48.57,268,3440,-16029,26,152,28,150,-126,-122,-89,-89
,973,2018/03/15 00:39:48.59,347,3442,-16062,32,149,28,146,-117,-118,-90,-87
,974,2018/03/15 00:39:48.61,320,3433,-16035,24,145,24,146,-121,-122,-84,-85
,975,2018/03/15 00:39:48.63,304,3414,-16040,28,149,29,150,-121,-121,-88,-89
,976,2018/03/15 00:39:48.65,364,3482,-16062,28,148,29,145,-120,-116,-88,-87
,977,2018/03/15 00:39:48.67,395,3505,-16068,29,143,26,146,-114,-120,-86,-86
,978,2018/03/15 00:39:48.69,391,3514,-16023,24,147,22,142,-123,-120,-85,-82
,979,2018/03/15 00:39:48.71,378,3547,-16041,24,140,24,138,-116,-114,-82,-81
,980,2018/03/15 00:39:48.73,357,3482,-15991,20,134,18,140,-114,-122,-77,-79
,981,2018/03/15 00:39:48.75,382,3461,-16038,13,131,6,115,-118,-109,-72,-60
,982,2018/03/15 00:39:48.77,416,3422,-15977,-53,28,-168,-108,-81,-60,12,138
,983,2018/03/15 00:39:48.79,466,3467,-16109,-308,-265,-430,-407,-43,-23,286,418
,984,2018/03/15 00:39:48.81,359,3394,-16139,-513,-517,-525,-537,4,12,515,531
,985,2018/03/15 00:39:48.83,415,3402,-15982,-476,-486,-423,-407,10,-16,481,415
,986,2018/03/15 00:39:48.85,442,3497,-15850,-388,-341,-348,-285,-47,-63,364,316
,987,2018/03/15 00:39:48.87,452,3576,-15989,-304,-236,-284,-220,-68,-64,270,252
,988,2018/03/15 00:39:48.89,505,3693,-16090,-272,-214,-249,-190,-58,-59,243,219
,989,2018/03/15 00:39:48.91,500,3692,-16067,-231,-164,-204,-127,-67,-77,197,165
,990,2018/03/15 00:39:48.93,545,3684,-15949,-174,-93,-156,-77,-81,-79,133,116
,991,2018/03/15 00:39:48.95,512,3618,-16041,-167,-87,-174,-89,-80,-85,127,131
,992,2018/03/15 00:39:48.97,473,3600,-16006,-164,-72,-149,-46,-92,-103,118,97
,993,2018/03/15 00:39:48.99,498,3582,-15941,-139,-28,-131,-23,-111,-108,83,77
,994,2018/03/15 00:39:49.01,495,3555,-16039,-102,3,-70,43,-105,-113,49,13
,995,2018/03/15 00:39:49.03,465,3545,-16067,-42,80,-7,118,-122,-125,-19,-55
,996,2018/03/15 00:39:49.05,409,3586,-15998,36,161,84,207,-125,-123,-98,-145
,997,2018/03/15 00:39:49.07,439,3608,-16007,125,245,150,270,-120,-120,-185,-210
,998,2018/03/15 00:39:49.09,415,3621,-16024,171,296,187,318,-125,-131,-233,-252
,999,2018/03/15 00:39:49.11,490,3614,-16040,200,337,209,355,-137,-146,-268,-282
,1000,2018/03/15 00:39:49.13,436,3498,-16053,204,358,194,354,-154,-160,-281,-274
,1001,2018/03/15 00:39:49.15,402,3496,-15991,177,342,150,323,-165,-173,-259,-236
,1002,2018/03/15 00:39:49.17,351,3457,-15973,124,300,116,288,-176,-172,-212,-202
,1003,2018/03/15 00:39:49.19,464,3452,-16043,120,296,118,292,-176,-174,-208,-205
,1004,2018/03/15 00:39:49.21,419,3403,-16032,114,288,109,279,-174,-170,-201,-194
,1005,2018/03/15 00:39:49.23,432,3436,-16025,95,269,84,262,-174,-178,-182,-173
,1006,2018/03/15 00:39:49.25,324,3362,-16010,68,246,72,248,-178,-176,-157,-160
,1007,2018/03/15 00:39:49.27,399,3407,-16054,70,244,67,240,-174,-173,-157,-153
,1008,2018/03/15 00:39:49.29,396,3445,-16044,64,239,62,238,-175,-176,-151,-150
,1009,2018/03/15 00:39:49.31,425,3443,-16041,67,243,73,246,-176,-173,-155,-159
,1010,2018/03/15 00:39:49.33,451,3578,-16050,74,244,70,237,-170,-167,-159,-153
,1011,2018/03/15 00:39:49.35,383,3507,-16053,61,227,50,219,-166,-169,-144,-134
,1012,2018/03/15 00:39:49.37,428,3492,-16068,46,216,45,210,-170,-165,-131,-127
,1013,2018/03/15 00:39:49.39,432,3497,-16025,53,209,58,210,-156,-152,-131,-134
,1014,2018/03/15 00:39:49.41,413,3480,-16054,56,212,54,213,-156,-159,-134,-133
,1015,2018/03/15 00:39:49.43,384,3443,-15981,53,208,53,207,-155,-154,-130,-130
,1016,2018/03/15 00:39:49.45,508,3500,-16044,54,208,54,208,-154,-154,-131,-131
,1017,2018/03/15 00:39:49.47,430,3450,-16098,53,204,48,198,-151,-150,-128,-123
,1018,2018/03/15 00:39:49.49,325,3429,-16022,43,195,40,194,-152,-154,-119,-117
,1019,2018/03/15 00:39:49.51,276,3280,-16050,42,193,43,192,-151,-149,-117,-117
,1020,2018/03/15 00:39:49.53,300,3350,-15907,44,192,46,194,-148,-148,-118,-120
,1021,2018/03/15 00:39:49.55,406,3389,-15925,45,192,43,190,-147,-147,-118,-116
,1022,2018/03/15 00:39:49.57,434,3531,-16060,42,189,42,186,-147,-144,-115,-114
,1023,2018/03/15 00:39:49.59,350,3503,-16055,42,185,41,189,-143,-148,-113,-115
,1024,2018/03/15 00:39:49.61,431,3479,-16068,40,182,37,180,-142,-143,-111,-108
,1025,2018/03/15 00:39:49.63,403,3473,-16038,34,180,29,180,-146,-151,-107,-104
,1026,2018/03/15 00:39:49.65,408,3407,-16010,34,180,34,178,-146,-144,-107,-106
,1027,2018/03/15 00:39:49.67,398,3393,-16039,34,182,33,181,-148,-148,-108,-107
,1028,2018/03/15 00:39:49.69,399,3358,-16127,34,177,35,175,-143,-140,-105,-105
,1029,2018/03/15 00:39:49.71,418,3426,-16075,34,177,32,180,-143,-148,-105,-106
,1030,2018/03/15 00:39:49.73,347,3384,-16076,30,179,30,177,-149,-147,-104,-103
,1031,2018/03/15 00:39:49.75,442,3373,-16060,31,176,30,173,-145,-143,-103,-101
,1032,2018/03/15 00:39:49.77,341,3403,-16010,30,172,28,173,-142,-145,-101,-100
,1033,2018/03/15 00:39:49.79,449,3413,-16038,29,173,30,174,-144,-144,-101,-102
,1034,2018/03/15 00:39:49.81,297,3404,-16106,29,172,27,170,-143,-143,-100,-98
,1035,2018/03/15 00:39:49.83,436,3400,-16098,24,166,24,165,-142,-141,-95,-94
,1036,2018/03/15 00:39:49.85,456,3407,-16103,27,169,27,171,-142,-144,-98,-99
,1037,2018/03/15 00:39:49.87,427,3362,-16091,28,172,28,171,-144,-143,-100,-99
,1038,2018/03/15 00:39:49.89,390,3356,-16039,28,172,29,174,-144,-145,-100,-101
,1039,2018/03/15 00:39:49.91,357,3320,-16045,29,170,28,164,-141,-136,-99,-96
,1040,2018/03/15 00:39:49.93,371,3334,-16053,26,163,23,164,-137,-141,-94,-93
,1041,2018/03/15 00:39:49.95,396,3341,-16054,21,163,22,161,-142,-139,-92,-91
,1042,2018/03/15 00:39:49.97,421,3404,-16045,26,161,26,158,-135,-132,-93,-92
,1043,2018/03/15 00:39:49.99,462,3434,-16094,19,157,16,158,-138,-142,-88,-87
,1044,2018/03/15 00:39:50.01,364,3446,-16056,13,160,17,155,-147,-138,-86,-86
,1045,2018/03/15 00:39:50.03,436,3407,-16025,18,154,24,158,-136,-134,-86,-91
,1046,2018/03/15 00:39:50.05,415,3420,-16075,21,159,18,161,-138,-143,-90,-89
,1047,2018/03/15 00:39:50.07,421,3430,-16061,17,158,25,168,-141,-143,-87,-96
,1048,2018/03/15 00:39:50.09,402,3387,-16070,24,168,16,157,-144,-141,-96,-86
,1049,2018/03/15 00:39:50.11,420,3396,-16045,22,162,24,159,-140,-135,-92,-91
,1050,2018/03/15 00:39:50.13,418,3409,-16030,20,158,18,159,-138,-141,-89,-88
,1051,2018/03/15 00:39:50.15,386,3398,-16042,20,164,22,165,-144,-143,-92,-93
,1052,2018/03/15 00:39:50.17,426,3329,-15999,21,163,16,159,-142,-143,-92,-87
,1053,2018/03/15 00:39:50.19,430,3365,-16124,13,157,16,159,-144,-143,-85,-87
,1054,2018/03/15 00:39:50.21,350,3353,-16137,16,159,15,159,-143,-144,-87,-87
,1055,2018/03/15 00:39:50.23,394,3333,-16094,14,157,14,153,-143,-139,-85,-83
,1056,2018/03/15 00:39:50.25,367,3233,-16024,15,154,14,158,-139,-144,-84,-86
,1057,2018/03/15 00:39:50.27,422,3302,-15957,12,159,7,161,-147,-154,-85,-84
,1058,2018/03/15 00:39:50.29,320,3394,-15988,6,162,8,168,-156,-160,-84,-88
,1059,2018/03/15 00:39:50.31,422,3449,-16090,11,169,11,165,-158,-154,-90,-88
,1060,2018/03/15 00:39:50.33,447,3425,-16160,5,160,4,154,-155,-150,-82,-79
,1061,2018/03/15 00:39:50.35,405,3424,-16054,8,154,10,152,-146,-142,-81,-81
,1062,2018/03/15 00:39:50.37,413,3366,-16096,10,150,7,149,-140,-142,-80,-78
,1063,2018/03/15 00:39:50.39,448,3301,-16109,6,153,8,157,-147,-149,-79,-82
,1064,2018/03/15 00:39:50.41,375,3248,-16062,15,161,17,164,-146,-147,-88,-90
,1065,2018/03/15 00:39:50.43,436,3327,-16079,22,164,16,161,-142,-145,-93,-88
,1066,2018/03/15 00:39:50.45,394,3335,-16066,19,165,10,156,-146,-146,-92,-83
,1067,2018/03/15 00:39:50.47,321,3376,-16000,11,154,4,145,-143,-141,-82,-74
,1068,2018/03/15 00:39:50.49,463,3439,-16055,8,154,6,154,-146,-148,-81,-80
,1069,2018/03/15 00:39:50.51,399,3407,-16062,3,152,3,151,-149,-148,-77,-77
,1070,2018/03/15 00:39:50.53,407,3332,-16101,6,151,5,145,-145,-140,-78,-75
,1071,2018/03/15 00:39:50.55,360,3376,-16034,9,147,10,148,-138,-138,-78,-79
,1072,2018/03/15 00:39:50.57,469,3378,-16052,10,148,6,148,-138,-142,-79,-77
,1073,2018/03/15 00:39:50.59,414,3384,-16019,4,145,5,144,-141,-139,-74,-74
,1074,2018/03/15 00:39:50.61,362,3339,-16104,8,146,11,148,-138,-137,-77,-79
,1075,2018/03/15 00:39:50.63,377,3339,-16048,8,150,8,153,-142,-145,-79,-80
,1076,2018/03/15 00:39:50.65,360,3425,-16123,1,153,-5,151,-152,-156,-77,-73
,1077,2018/03/15 00:39:50.67,352,3287,-16151,5,158,-4,157,-153,-161,-81,-76
,1078,2018/03/15 00:39:50.69,444,3276,-16180,-18,153,-48,129,-171,-177,-67,-40
,1079,2018/03/15 00:39:50.71,440,3330,-16153,-79,102,-138,56,-181,-194,-11,41
,1080,2018/03/15 00:39:50.73,443,3378,-16048,-217,-12,-302,-91,-205,-211,114,196
,1081,2018/03/15 00:39:50.75,391,3489,-16033,-378,-167,-452,-244,-211,-208,272,348
,1082,2018/03/15 00:39:50.77,338,3471,-16112,-506,-304,-534,-335,-202,-199,405,434
,1083,2018/03/15 00:39:50.79,297,3388,-16049,-544,-349,-544,-348,-195,-196,446,446
,1084,2018/03/15 00:39:50.81,358,3398,-16037,-558,-365,-572,-383,-193,-189,461,477
,1085,2018/03/15 00:39:50.83,373,3376,-16030,-576,-390,-585,-410,-186,-175,483,497
,1086,2018/03/15 00:39:50.85,371,3267,-16084,-584,-415,-572,-405,-169,-167,499,488
,1087,2018/03/15 00:39:50.87,337,3340,-16081,-550,-382,-490,-323,-168,-167,466,406
,1088,2018/03/15 00:39:50.89,266,3318,-16118,-453,-298,-434,-284,-155,-150,375,359
,1089,2018/03/15 00:39:50.91,282,3300,-15975,-422,-273,-424,-272,-149,-152,347,348
,1090,2018/03/15 00:39:50.93,217,3300,-16018,-451,-301,-485,-342,-150,-143,376,413
,1091,2018/03/15 00:39:50.95,285,3251,-16107,-500,-361,-501,-360,-139,-141,430,430
,1092,2018/03/15 00:39:50.97,354,3212,-16042,-497,-346,-463,-303,-151,-160,421,383
,1093,2018/03/15 00:39:50.99,272,3351,-15940,-416,-256,-358,-199,-160,-159,336,278
,1094,2018/03/15 00:39:51.01,285,3445,-16041,-291,-132,-224,-65,-159,-159,211,144
,1095,2018/03/15 00:39:51.03,337,3453,-16126,-158,1,-100,53,-159,-153,78,23
,1096,2018/03/15 00:39:51.05,334,3413,-16085,-47,97,-8,126,-144,-134,-25,-59
,1097,2018/03/15 00:39:51.07,254,3299,-16073,13,141,35,160,-128,-125,-77,-97
,1098,2018/03/15 00:39:51.09,217,3263,-16036,59,181,80,203,-122,-123,-120,-141
,1099,2018/03/15 00:39:51.11,205,3242,-16074,97,219,101,223,-122,-122,-158,-162
,1100,2018/03/15 00:39:51.13,292,3237,-16078,108,229,121,238,-121,-117,-168,-179
,1101,2018/03/15 00:39:51.15,243,3293,-16051,128,242,131,239,-114,-108,-185,-185
,1102,2018/03/15 00:39:51.17,264,3341,-16100,134,234,140,240,-100,-100,-184,-190
,1103,2018/03/15 00:39:51.19,284,3399,-16088,147,250,154,262,-103,-108,-198,-208
,1104,2018/03/15 00:39:51.21,312,3379,-16079,162,270,163,274,-108,-111,-216,-218
,1105,2018/03/15 00:39:51.23,294,3369,-16000,164,276,153,273,-112,-120,-220,-213
,1106,2018/03/15 00:39:51.25,311,3284,-16099,149,264,144,259,-115,-115,-206,-201
,1107,2018/03/15 00:39:51.27,322,3325,-16065,139,252,125,235,-113,-110,-195,-180
,1108,2018/03/15 00:39:51.29,358,3329,-16080,125,223,123,214,-98,-91,-174,-168
,1109,2018/03/15 00:39:51.31,357,3371,-16092,128,224,127,228,-96,-101,-176,-177
,1110,2018/03/15 00:39:51.33,417,3311,-16059,129,236,131,240,-107,-109,-182,-185
,1111,2018/03/15 00:39:51.35,366,3275,-16122,131,244,128,240,-113,-112,-187,-184
,1112,2018/03/15 00:39:51.37,251,3338,-16070,126,239,120,241,-113,-121,-182,-180
,1113,2018/03/15 00:39:51.39,328,3304,-16026,120,246,122,251,-126,-129,-183,-186
,1114,2018/03/15 00:39:51.41,250,3359,-16100,125,253,118,247,-128,-129,-189,-182
,1115,2018/03/15 00:39:51.43,278,3373,-16059,111,241,106,239,-130,-133,-176,-172
,1116,2018/03/15 00:39:51.45,327,3418,-16042,104,240,103,243,-136,-140,-172,-173
,1117,2018/03/15 00:39:51.47,320,3396,-16113,102,240,99,235,-138,-136,-171,-167
,1118,2018/03/15 00:39:51.49,365,3366,-16067,100,235,97,234,-135,-137,-167,-165
,1119,2018/03/15 00:39:51.51,345,3353,-16046,94,236,90,236,-142,-146,-165,-163
,1120,2018/03/15 00:39:51.53,272,3324,-16111,85,234,80,232,-149,-152,-159,-156
,1121,2018/03/15 00:39:51.55,308,3327,-16094,79,229,80,230,-150,-150,-154,-155
,1122,2018/03/15 00:39:51.57,280,3304,-16086,75,229,69,229,-154,-160,-152,-149
,1123,2018/03/15 00:39:51.59,369,3346,-16133,66,228,64,226,-162,-162,-147,-145
,1124,2018/03/15 00:39:51.61,375,3367,-16094,64,227,64,223,-163,-159,-145,-143
,1125,2018/03/15 00:39:51.63,311,3304,-16158,58,219,61,220,-161,-159,-138,-140
,1126,2018/03/15 00:39:51.65,258,3302,-16122,58,220,64,221,-162,-157,-139,-142
,1127,2018/03/15 00:39:51.67,299,3252,-15995,63,222,64,223,-159,-159,-142,-143
,1128,2018/03/15 00:39:51.69,258,3318,-15990,59,215,63,211,-156,-148,-137,-137
,1129,2018/03/15 00:39:51.71,310,3371,-16055,61,205,62,209,-144,-147,-133,-135
,1130,2018/03/15 00:39:51.73,342,3364,-16157,54,200,48,196,-146,-148,-127,-122
,1131,2018/03/15 00:39:51.75,292,3321,-16159,43,191,45,192,-148,-147,-117,-118
,1132,2018/03/15 00:39:51.77,328,3281,-16071,47,191,48,191,-144,-143,-119,-119
,1133,2018/03/15 00:39:51.79,349,3241,-16030,48,191,46,191,-143,-145,-119,-118
,1134,2018/03/15 00:39:51.81,306,3186,-16095,46,193,46,194,-147,-148,-119,-120
,1135,2018/03/15 00:39:51.83,250,3210,-16121,43,193,43,195,-150,-152,-118,-119
,1136,2018/03/15 00:39:51.85,343,3336,-16046,41,194,36,188,-153,-152,-117,-112
,1137,2018/03/15 00:39:51.87,324,3340,-16113,34,188,36,188,-154,-152,-111,-112
,1138,2018/03/15 00:39:51.89,298,3368,-16041,40,186,40,185,-146,-145,-113,-112
,1139,2018/03/15 00:39:51.91,298,3377,-16021,41,188,40,188,-147,-148,-114,-114
,1140,2018/03/15 00:39:51.93,253,3350,-16019,36,183,40,184,-147,-144,-109,-112
,1141,2018/03/15 00:39:51.95,302,3382,-16058,40,184,37,180,-144,-143,-112,-108
,1142,2018/03/15 00:39:51.97,252,3294,-16084,36,180,36,180,-144,-144,-108,-108
,1143,2018/03/15 00:39:51.99,266,3304,-16062,32,183,26,179,-151,-153,-107,-102
,1144,2018/03/15 00:39:52.01,323,3266,-16059,20,172,17,167,-152,-150,-96,-92
,1145,2018/03/15 00:39:52.03,295,3285,-16059,23,169,18,169,-146,-151,-96,-93
,1146,2018/03/15 00:39:52.05,327,3312,-16050,10,169,-6,152,-159,-158,-89,-73
,1147,2018/03/15 00:39:52.07,309,3341,-16059,-1,139,4,128,-140,-124,-69,-66
,1148,2018/03/15 00:39:52.09,398,3366,-16048,15,124,-19,82,-109,-101,-69,-31
,1149,2018/03/15 00:39:52.11,332,3332,-16092,-63,36,-117,-24,-99,-93,13,70
,1150,2018/03/15 00:39:52.13,367,3396,-16037,-177,-84,-239,-144,-93,-95,130,191
,1151,2018/03/15 00:39:52.15,291,3459,-16053,-299,-202,-358,-261,-97,-97,250,309
,1152,2018/03/15 00:39:52.17,374,3362,-16005,-400,-305,-404,-313,-95,-91,352,358
,1153,2018/03/15 00:39:52.19,355,3347,-16017,-378,-292,-372,-288,-86,-84,335,330
,1154,2018/03/15 00:39:52.21,314,3483,-16059,-373,-287,-356,-266,-86,-90,330,311
,1155,2018/03/15 00:39:52.23,359,3409,-16011,-316,-222,-265,-173,-94,-92,269,219
,1156,2018/03/15 00:39:52.25,372,3460,-16043,-221,-128,-180,-83,-93,-97,174,131
,1157,2018/03/15 00:39:52.27,415,3393,-15990,-135,-36,-92,9,-99,-101,85,41
,1158,2018/03/15 00:39:52.29,326,3352,-16062,-54,53,-14,95,-107,-109,0,-40
,1159,2018/03/15 00:39:52.31,367,3332,-16124,25,136,65,172,-111,-107,-80,-118
,1160,2018/03/15 00:39:52.33,357,3318,-16088,91,196,103,209,-105,-106,-143,-156
,1161,2018/03/15 00:39:52.35,347,3261,-16059,109,222,119,239,-113,-120,-165,-179
,1162,2018/03/15 00:39:52.37,395,3328,-15924,129,251,139,256,-122,-117,-190,-197
,1163,2018/03/15 00:39:52.39,304,3440,-15990,152,266,159,278,-114,-119,-209,-218
,1164,2018/03/15 00:39:52.41,387,3440,-16129,155,279,157,284,-124,-127,-217,-220
,1165,2018/03/15 00:39:52.43,442,3405,-16098,164,291,174,301,-127,-127,-227,-237
,1166,2018/03/15 00:39:52.45,412,3376,-16043,170,302,171,303,-132,-132,-236,-237
,1167,2018/03/15 00:39:52.47,363,3367,-16056,154,286,156,285,-132,-129,-220,-220
,1168,2018/03/15 00:39:52.49,289,3282,-16030,157,292,158,305,-135,-147,-224,-231
,1169,2018/03/15 00:39:52.51,385,3246,-16116,144,299,137,294,-155,-157,-221,-215
,1170,2018/03/15 00:39:52.53,325,3282,-16020,134,291,140,299,-157,-159,-212,-219
,1171,2018/03/15 00:39:52.55,358,3323,-16050,135,294,124,288,-159,-164,-214,-206
,1172,2018/03/15 00:39:52.57,364,3343,-16071,116,284,113,282,-168,-169,-200,-197
,1173,2018/03/15 00:39:52.59,325,3347,-16065,112,285,113,285,-173,-172,-198,-199
,1174,2018/03/15 00:39:52.61,417,3298,-16037,108,277,100,271,-169,-171,-192,-185
,1175,2018/03/15 00:39:52.63,345,3354,-16051,96,268,87,263,-172,-176,-182,-175
,1176,2018/03/15 00:39:52.65,262,3327,-16107,80,257,77,252,-177,-175,-168,-164
,1177,2018/03/15 00:39:52.67,336,3287,-16054,78,254,78,256,-176,-178,-166,-167
,1178,2018/03/15 00:39:52.69,436,3320,-16054,77,254,71,246,-177,-175,-165,-158
,1179,2018/03/15 00:39:52.71,392,3310,-16074,66,237,74,243,-171,-169,-151,-158
,1180,2018/03/15 00:39:52.73,353,3326,-16030,83,248,85,247,-165,-162,-165,-166
,1181,2018/03/15 00:39:52.75,325,3329,-16069,78,240,67,229,-162,-162,-159,-148
,1182,2018/03/15 00:39:52.77,334,3319,-16022,64,227,65,228,-163,-163,-145,-146
,1183,2018/03/15 00:39:52.79,302,3349,-16055,67,230,69,227,-163,-158,-148,-148
,1184,2018/03/15 00:39:52.81,373,3393,-16056,66,220,68,220,-154,-152,-143,-144
,1185,2018/03/15 00:39:52.83,316,3428,-16053,68,220,68,219,-152,-151,-144,-143
,1186,2018/03/15 00:39:52.85,421,3438,-16045,75,222,67,212,-147,-145,-148,-139
,1187,2018/03/15 00:39:52.87,299,3416,-16050,64,208,48,192,-144,-144,-136,-120
,1188,2018/03/15 00:39:52.89,363,3403,-16095,58,200,57,196,-142,-139,-129,-126
,1189,2018/03/15 00:39:52.91,347,3328,-16028,63,197,54,190,-134,-136,-130,-122
,1190,2018/03/15 00:39:52.93,402,3339,-16097,52,190,48,185,-138,-137,-121,-116
,1191,2018/03/15 00:39:52.95,373,3375,-16053,48,191,47,192,-143,-145,-119,-119
,1192,2018/03/15 00:39:52.97,263,3283,-16060,48,193,46,192,-145,-146,-120,-119
,1193,2018/03/15 00:39:52.99,402,3286,-16078,44,191,43,190,-147,-147,-117,-116
,1194,2018/03/15 00:39:53.01,361,3295,-16138,43,188,46,190,-145,-144,-115,-118
,1195,2018/03/15 00:39:53.03,357,3268,-16040,45,189,42,187,-144,-145,-117,-114
,1196,2018/03/15 00:39:53.05,257,3277,-16065,40,187,37,185,-147,-148,-113,-111
,1197,2018/03/15 00:39:53.07,306,3319,-15913,38,186,38,183,-148,-145,-112,-110
,1198,2018/03/15 00:39:53.09,402,3351,-15985,36,178,33,175,-142,-142,-107,-104
,1199,2018/03/15 00:39:53.11,348,3381,-16050,25,170,11,158,-145,-147,-97,-84
,1200,2018/03/15 00:39:53.13,374,3359,-16153,0,145,-3,137,-145,-140,-72,-67
,1201,2018/03/15 00:39:53.15,292,3286,-16105,-8,125,-26,100,-133,-126,-58,-37
,1202,2018/03/15 00:39:53.17,422,3285,-16037,-45,78,-59,60,-123,-119,-16,0
,1203,2018/03/15 00:39:53.19,350,3262,-16049,-67,44,-69,37,-111,-106,11,16
,1204,2018/03/15 00:39:53.21,399,3285,-16081,-72,35,-68,44,-107,-112,18,12
,1205,2018/03/15 00:39:53.23,322,3229,-16046,-66,52,-62,56,-118,-118,7,3
,1206,2018/03/15 00:39:53.25,283,3336,-16094,-57,60,-49,68,-117,-117,-1,-9
,1207,2018/03/15 00:39:53.27,362,3340,-16129,-57,66,-54,71,-123,-125,-4,-8
,1208,2018/03/15 00:39:53.29,335,3340,-16056,-54,67,-30,91,-121,-121,-6,-30
,1209,2018/03/15 00:39:53.31,337,3319,-16043,-22,101,-12,117,-123,-129,-39,-52
,1210,2018/03/15 00:39:53.33,392,3252,-16074,-8,125,0,138,-133,-138,-58,-69
,1211,2018/03/15 00:39:53.35,393,3316,-16089,12,146,20,155,-134,-135,-79,-87
,1212,2018/03/15 00:39:53.37,328,3306,-16089,22,159,22,164,-137,-142,-90,-93
,1213,2018/03/15 00:39:53.39,394,3293,-16088,24,173,24,177,-149,-153,-98,-100
,1214,2018/03/15 00:39:53.41,367,3315,-16109,27,182,28,185,-155,-157,-104,-106
,1215,2018/03/15 00:39:53.43,288,3369,-16086,26,189,29,193,-163,-164,-107,-111
,1216,2018/03/15 00:39:53.45,360,3280,-16074,37,202,43,209,-165,-166,-119,-126
,1217,2018/03/15 00:39:53.47,345,3261,-16039,44,211,45,214,-167,-169,-127,-129
,1218,2018/03/15 00:39:53.49,422,3372,-16096,48,214,53,213,-166,-160,-131,-133
,1219,2018/03/15 00:39:53.51,386,3355,-16112,52,210,52,208,-158,-156,-131,-130
,1220,2018/03/15 00:39:53.53,359,3396,-16102,55,209,57,207,-154,-150,-132,-132
,1221,2018/03/15 00:39:53.55,376,3375,-16113,58,208,59,209,-150,-150,-133,-134
,1222,2018/03/15 00:39:53.57,329,3387,-16056,56,208,58,210,-152,-152,-132,-134
,1223,2018/03/15 00:39:53.59,304,3370,-16072,58,206,56,204,-148,-148,-132,-130
,1224,2018/03/15 00:39:53.61,396,3397,-16066,54,204,52,201,-150,-149,-129,-126
,1225,2018/03/15 00:39:53.63,328,3342,-16025,49,196,46,190,-147,-144,-122,-118
,1226,2018/03/15 00:39:53.65,253,3342,-16070,45,186,38,182,-141,-144,-115,-110
,1227,2018/03/15 00:39:53.67,305,3298,-16043,41,184,32,176,-143,-144,-112,-104
,1228,2018/03/15 00:39:53.69,318,3236,-16110,32,176,23,166,-144,-143,-104,-94
,1229,2018/03/15 00:39:53.71,280,3276,-16077,30,178,24,171,-148,-147,-104,-97
,1230,2018/03/15 00:39:53.73,264,3250,-16130,16,165,16,163,-149,-147,-90,-89
,1231,2018/03/15 00:39:53.75,282,3213,-16145,13,165,12,166,-152,-154,-89,-89
,1232,2018/03/15 00:39:53.77,232,3235,-16013,14,170,16,171,-156,-155,-92,-93
,1233,2018/03/15 00:39:53.79,285,3304,-15977,11,165,3,156,-154,-153,-88,-79
,1234,2018/03/15 00:39:53.81,306,3407,-16072,-1,152,-5,146,-153,-151,-75,-70
,1235,2018/03/15 00:39:53.83,344,3304,-16102,0,146,2,147,-146,-145,-73,-74
,1236,2018/03/15 00:39:53.85,385,3239,-16072,3,151,2,150,-148,-148,-77,-76
,1237,2018/03/15 00:39:53.87,399,3153,-16057,-4,143,-10,137,-147,-147,-69,-63
,1238,2018/03/15 00:39:53.89,306,3183,-16052,-7,136,-7,136,-143,-143,-64,-64
,1239,2018/03/15 00:39:53.91,368,3023,-16101,-5,140,-5,141,-145,-146,-67,-68
,1240,2018/03/15 00:39:53.93,377,3125,-16115,-5,143,-7,144,-148,-151,-69,-68
,1241,2018/03/15 00:39:53.95,380,3073,-16105,-7,144,-6,147,-151,-153,-68,-70
,1242,2018/03/15 00:39:53.97,345,3182,-16137,-8,143,-8,141,-151,-149,-67,-66
,1243,2018/03/15 00:39:53.99,405,3380,-16028,-9,139,-9,138,-148,-147,-65,-64
,1244,2018/03/15 00:39:54.01,366,3483,-15959,-11,135,-12,131,-146,-143,-62,-59
,1245,2018/03/15 00:39:54.03,367,3388,-16184,-14,129,-13,129,-143,-142,-57,-58
,1246,2018/03/15 00:39:54.05,424,3466,-16179,-9,131,-6,133,-140,-139,-61,-63
,1247,2018/03/15 00:39:54.07,463,3414,-16101,-6,131,-2,134,-137,-136,-62,-66
,1248,2018/03/15 00:39:54.09,468,3401,-16074,-14,129,-15,126,-143,-141,-57,-55
,1249,2018/03/15 00:39:54.11,437,3333,-16097,-21,115,-10,131,-136,-141,-47,-60
,1250,2018/03/15 00:39:54.13,399,3394,-16063,-3,136,-2,136,-139,-138,-66,-67
,1251,2018/03/15 00:39:54.15,415,3320,-16073,0,136,-5,132,-136,-137,-68,-63
,1252,2018/03/15 00:39:54.17,443,3237,-16021,-15,127,-7,135,-142,-142,-56,-64
,1253,2018/03/15 00:39:54.19,400,3237,-16030,-4,137,-4,136,-141,-140,-66,-66
,1254,2018/03/15 00:39:54.21,510,3288,-16131,-6,136,-5,136,-142,-141,-65,-65
,1255,2018/03/15 00:39:54.23,392,3295,-16027,2,139,2,135,-137,-133,-70,-68
,1256,2018/03/15 00:39:54.25,443,3326,-16053,-4,133,-8,135,-137,-143,-64,-63
,1257,2018/03/15 00:39:54.27,434,3303,-16057,-6,136,-3,137,-142,-140,-65,-67
,1258,2018/03/15 00:39:54.29,472,3292,-16103,-2,139,-4,138,-141,-142,-68,-67
,1259,2018/03/15 00:39:54.31,374,3333,-16102,-6,138,-9,136,-144,-145,-66,-63
,1260,2018/03/15 00:39:54.33,415,3274,-16069,-11,134,-10,129,-145,-139,-61,-59
,1261,2018/03/15 00:39:54.35,446,3321,-16063,-12,125,-15,125,-137,-140,-56,-55
,1262,2018/03/15 00:39:54.37,450,3248,-16057,-18,125,-20,125,-143,-145,-53,-52
,1263,2018/03/15 00:39:54.39,442,3273,-16069,-18,126,-18,124,-144,-142,-54,-53
,1264,2018/03/15 00:39:54.41,335,3276,-16077,-16,125,-18,125,-141,-143,-54,-53
,1265,2018/03/15 00:39:54.43,400,3228,-16039,-18,126,-20,124,-144,-144,-54,-52
,1266,2018/03/15 00:39:54.45,462,3181,-16143,-21,121,-19,122,-142,-141,-50,-51
,1267,2018/03/15 00:39:54.47,321,3198,-16004,-19,123,-20,127,-142,-147,-52,-53
,1268,2018/03/15 00:39:54.49,350,3284,-15993,-10,138,-15,134,-148,-149,-64,-59
,1269,2018/03/15 00:39:54.51,466,3351,-16108,-8,134,-16,122,-142,-138,-63,-53
,1270,2018/03/15 00:39:54.53,494,3346,-16138,-6,132,-9,131,-138,-140,-63,-61
,1271,2018/03/15 00:39:54.55,477,3352,-16100,-8,136,-10,133,-144,-143,-64,-61
,1272,2018/03/15 00:39:54.57,427,3286,-16029,-7,135,-8,132,-142,-140,-64,-62
,1273,2018/03/15 00:39:54.59,504,3191,-16033,-8,133,-13,129,-141,-142,-62,-58
,1274,2018/03/15 00:39:54.61,362,3210,-16039,-14,128,-16,128,-142,-144,-57,-56
,1275,2018/03/15 00:39:54.63,434,3215,-16101,-18,127,-18,128,-145,-146,-54,-55
,1276,2018/03/15 00:39:54.65,403,3309,-16094,-18,125,-15,123,-143,-138,-53,-54
,1277,2018/03/15 00:39:54.67,418,3362,-16088,-13,120,-12,118,-133,-130,-53,-53
,1278,2018/03/15 00:39:54.69,463,3363,-16086,-10,124,-9,126,-134,-135,-57,-58
,1279,2018/03/15 00:39:54.71,413,3366,-16029,-10,128,-9,128,-138,-137,-59,-59
,1280,2018/03/15 00:39:54.73,441,3406,-15969,-10,125,-10,124,-135,-134,-57,-57
,1281,2018/03/15 00:39:54.75,429,3333,-16055,-14,124,-18,128,-138,-146,-55,-55
,1282,2018/03/15 00:39:54.77,476,3399,-16050,-20,130,-20,128,-150,-148,-55,-54
,1283,2018/03/15 00:39:54.79,438,3367,-16107,-15,126,-15,123,-141,-138,-55,-54
,1284,2018/03/15 00:39:54.81,469,3405,-16086,-17,124,-18,125,-141,-143,-53,-53
,1285,2018/03/15 00:39:54.83,462,3362,-16086,-18,119,-17,116,-137,-133,-50,-49
,1286,2018/03/15 00:39:54.85,444,3359,-16048,-21,112,-31,105,-133,-136,-45,-37
,1287,2018/03/15 00:39:54.87,413,3373,-16072,-36,95,-50,74,-131,-124,-29,-12
,1288,2018/03/15 00:39:54.89,369,3367,-16002,-66,53,-75,40,-119,-115,6,17
,1289,2018/03/15 00:39:54.91,422,3375,-16023,-94,23,-98,20,-117,-118,35,39
,1290,2018/03/15 00:39:54.93,425,3390,-16022,-106,11,-91,32,-117,-123,47,29
,1291,2018/03/15 00:39:54.95,370,3401,-16029,-84,46,-72,65,-130,-137,19,3
,1292,2018/03/15 00:39:54.97,487,3344,-16071,-52,85,-43,94,-137,-137,-16,-25
,1293,2018/03/15 00:39:54.99,365,3327,-16079,-34,98,-24,106,-132,-130,-32,-41
,1294,2018/03/15 00:39:55.01,454,3373,-16088,-15,116,-10,123,-131,-133,-50,-56
,1295,2018/03/15 00:39:55.03,400,3366,-16093,-10,124,-6,129,-134,-135,-57,-61
,1296,2018/03/15 00:39:55.05,496,3297,-16042,-1,136,2,138,-137,-136,-67,-70
,1297,2018/03/15 00:39:55.07,428,3287,-16082,2,142,2,143,-140,-141,-72,-72
,1298,2018/03/15 00:39:55.09,441,3287,-16002,6,146,5,145,-140,-140,-76,-75
,1299,2018/03/15 00:39:55.11,402,3310,-16053,5,145,7,147,-140,-140,-75,-77
,1300,2018/03/15 00:39:55.13,368,3372,-16032,5,145,4,148,-140,-144,-75,-76
,1301,2018/03/15 00:39:55.15,402,3374,-16082,6,150,9,149,-144,-140,-78,-79
,1302,2018/03/15 00:39:55.17,290,3252,-16125,11,148,8,145,-137,-137,-79,-76
,1303,2018/03/15 00:39:55.19,283,3277,-15993,8,146,9,149,-138,-140,-77,-79
,1304,2018/03/15 00:39:55.21,398,3303,-15981,6,146,4,144,-140,-140,-76,-74
,1305,2018/03/15 00:39:55.23,440,3350,-16119,4,141,5,142,-137,-137,-72,-73
,1306,2018/03/15 00:39:55.25,352,3302,-16112,8,145,11,147,-137,-136,-76,-79
,1307,2018/03/15 00:39:55.27,327,3313,-16100,11,148,9,144,-137,-135,-79,-76
,1308,2018/03/15 00:39:55.29,390,3288,-16069,6,142,3,140,-136,-137,-74,-71
,1309,2018/03/15 00:39:55.31,380,3206,-16028,11,150,3,143,-139,-140,-80,-73
,1310,2018/03/15 00:39:55.33,371,3200,-16075,3,143,-6,129,-140,-135,-73,-61
,1311,2018/03/15 00:39:55.35,323,3208,-16062,2,137,-5,132,-135,-137,-69,-63
,1312,2018/03/15 00:39:55.37,416,3310,-15978,-16,128,-14,130,-144,-144,-56,-58
,1313,2018/03/15 00:39:55.39,374,3257,-16116,-16,129,-19,127,-145,-146,-56,-54
,1314,2018/03/15 00:39:55.41,365,3338,-16095,-20,129,-18,131,-149,-149,-54,-56
,1315,2018/03/15 00:39:55.43,347,3356,-16081,-13,132,-12,131,-145,-143,-59,-59
,1316,2018/03/15 00:39:55.45,357,3349,-16027,-15,126,-16,125,-141,-141,-55,-54
,1317,2018/03/15 00:39:55.47,357,3325,-16106,-14,132,-12,135,-146,-147,-59,-61
,1318,2018/03/15 00:39:55.49,402,3294,-16073,-14,134,-16,132,-148,-148,-60,-58
,1319,2018/03/15 00:39:55.51,462,3300,-16076,-14,129,-10,125,-143,-135,-57,-57
,1320,2018/03/15 00:39:55.53,376,3365,-16113,-12,123,-14,126,-135,-140,-55,-56
,1321,2018/03/15 00:39:55.55,349,3311,-16078,-12,130,-10,130,-142,-140,-59,-60
,1322,2018/03/15 00:39:55.57,457,3235,-16051,-9,128,-8,127,-137,-135,-59,-59
,1323,2018/03/15 00:39:55.59,367,3301,-16057,-6,128,-3,129,-134,-132,-61,-63
,1324,2018/03/15 00:39:55.61,412,3335,-16052,-5,128,-5,131,-133,-136,-61,-63
,1325,2018/03/15 00:39:55.63,349,3318,-16038,-11,130,-14,127,-141,-141,-59,-56
,1326,2018/03/15 00:39:55.65,423,3338,-16068,-10,126,-9,124,-136,-133,-58,-57
,1327,2018/03/15 00:39:55.67,440,3348,-16092,-7,124,-7,126,-131,-133,-58,-59
,1328,2018/03/15 00:39:55.69,439,3295,-16095,-7,127,-10,127,-134,-137,-60,-58
,1329,2018/03/15 00:39:55.71,481,3235,-16088,-10,125,1,134,-135,-133,-57,-67
,1330,2018/03/15 00:39:55.73,411,3264,-16123,-8,126,-12,127,-134,-139,-59,-57
,1331,2018/03/15 00:39:55.75,374,3247,-16094,-22,113,-18,120,-135,-138,-45,-51
,1332,2018/03/15 00:39:55.77,348,3293,-16096,-20,118,-27,111,-138,-138,-49,-42
,1333,2018/03/15 00:39:55.79,448,3297,-16115,-20,114,-20,114,-134,-134,-47,-47
,1334,2018/03/15 00:39:55.81,465,3221,-16047,-30,107,-20,120,-137,-140,-38,-50
,1335,2018/03/15 00:39:55.83,411,3313,-16073,-17,122,-18,120,-139,-138,-52,-51
,1336,2018/03/15 00:39:55.85,322,3319,-16096,-23,115,-26,113,-138,-139,-46,-43
,1337,2018/03/15 00:39:55.87,306,3291,-16128,-22,118,-18,121,-140,-139,-48,-51
,1338,2018/03/15 00:39:55.89,351,3254,-16134,-23,118,-27,115,-141,-142,-47,-44
,1339,2018/03/15 00:39:55.91,368,3232,-16017,-24,113,-17,116,-137,-133,-44,-49
,1340,2018/03/15 00:39:55.93,328,3291,-16017,-12,119,-14,118,-131,-132,-53,-52
,1341,2018/03/15 00:39:55.95,321,3287,-16055,-13,118,-14,119,-131,-133,-52,-52
,1342,2018/03/15 00:39:55.97,404,3278,-16138,-14,121,-12,120,-135,-132,-53,-54
,1343,2018/03/15 00:39:55.99,402,3257,-16069,-12,122,-11,126,-134,-137,-55,-57
,1344,2018/03/15 00:39:56.01,359,3251,-16070,-11,126,-10,126,-137,-136,-57,-58
,1345,2018/03/15 00:39:56.03,402,3198,-16067,-13,124,-15,124,-137,-139,-55,-54
,1346,2018/03/15 00:39:56.05,435,3174,-16090,-13,125,-9,125,-138,-134,-56,-58
,1347,2018/03/15 00:39:56.07,399,3204,-16088,-8,124,-9,124,-132,-133,-58,-57
,1348,2018/03/15 00:39:56.09,371,3241,-16054,-12,123,-11,123,-135,-134,-55,-56
,1349,2018/03/15 00:39:56.11,336,3266,-16134,-15,119,-18,116,-134,-134,-52,-49
,1350,2018/03/15 00:39:56.13,303,3310,-16069,-12,127,-22,119,-139,-141,-57,-48
,1351,2018/03/15 00:39:56.15,355,3315,-16121,-20,122,-27,112,-142,-139,-51,-42
,1352,2018/03/15 00:39:56.17,333,3295,-16112,-20,125,-16,128,-145,-144,-52,-56
,1353,2018/03/15 00:39:56.19,394,3286,-16063,-16,128,-25,125,-144,-150,-56,-50
,1354,2018/03/15 00:39:56.21,361,3267,-16096,-28,126,-24,124,-154,-148,-49,-50
,1355,2018/03/15 00:39:56.23,412,3221,-16105,-16,127,-13,126,-143,-139,-55,-56
,1356,2018/03/15 00:39:56.25,359,3252,-16075,-6,128,-5,129,-134,-134,-61,-62
,1357,2018/03/15 00:39:56.27,313,3201,-16100,-6,128,-7,130,-134,-137,-61,-61
,1358,2018/03/15 00:39:56.29,364,3251,-16107,-14,126,-21,124,-140,-145,-56,-51
,1359,2018/03/15 00:39:56.31,377,3263,-16029,-20,124,-17,123,-144,-140,-52,-53
,1360,2018/03/15 00:39:56.33,351,3251,-16101,-18,121,-19,118,-139,-137,-51,-49
,1361,2018/03/15 00:39:56.35,440,3273,-16107,-20,116,-23,112,-136,-135,-48,-44
,1362,2018/03/15 00:39:56.37,290,3297,-16040,-22,114,-16,120,-136,-136,-46,-52
,1363,2018/03/15 00:39:56.39,368,3312,-16096,-15,122,-19,119,-137,-138,-53,-50
,1364,2018/03/15 00:39:56.41,337,3297,-16038,-24,115,-23,115,-139,-138,-45,-46
,1365,2018/03/15 00:39:56.43,355,3264,-16074,-20,117,-16,117,-137,-133,-48,-50
,1366,2018/03/15 00:39:56.45,374,3339,-16097,-14,117,-21,116,-131,-137,-51,-47
,1367,2018/03/15 00:39:56.47,432,3355,-16108,-25,112,-27,108,-137,-135,-43,-40
,1368,2018/03/15 00:39:56.49,323,3316,-16067,-32,103,-33,102,-135,-135,-35,-34
,1369,2018/03/15 00:39:56.51,363,3261,-16062,-30,104,-26,111,-134,-137,-37,-42
,1370,2018/03/15 00:39:56.53,357,3258,-16074,-24,118,-17,128,-142,-145,-47,-55
,1371,2018/03/15 00:39:56.55,395,3220,-16108,-25,118,-25,115,-143,-140,-46,-45
,1372,2018/03/15 00:39:56.57,274,3227,-16125,-29,104,-23,120,-133,-143,-37,-48
,1373,2018/03/15 00:39:56.59,390,3272,-16071,-21,123,-27,118,-144,-145,-51,-45
,1374,2018/03/15 00:39:56.61,383,3201,-16113,-20,118,-19,111,-138,-130,-49,-46
,1375,2018/03/15 00:39:56.63,260,3123,-16154,-16,110,-17,108,-126,-125,-47,-45
,1376,2018/03/15 00:39:56.65,365,3252,-15973,-20,109,-21,112,-129,-133,-44,-45
,1377,2018/03/15 00:39:56.67,406,3244,-15969,-19,113,-18,113,-132,-131,-47,-47
,1378,2018/03/15 00:39:56.69,307,3281,-16127,-19,115,-15,120,-134,-135,-48,-52
,1379,2018/03/15 00:39:56.71,408,3251,-16148,-7,126,-11,121,-133,-132,-59,-55
,1380,2018/03/15 00:39:56.73,440,3259,-16042,-18,114,-22,112,-132,-134,-48,-45
,1381,2018/03/15 00:39:56.75,426,3206,-16006,-24,114,-26,116,-138,-142,-45,-45
,1382,2018/03/15 00:39:56.77,340,3224,-16082,-29,114,-27,115,-143,-142,-42,-44
,1383,2018/03/15 00:39:56.79,382,3191,-16125,-26,117,-27,117,-143,-144,-45,-45
,1384,2018/03/15 00:39:56.81,296,3190,-16110,-22,118,-23,112,-140,-135,-48,-44
,1385,2018/03/15 00:39:56.83,340,3231,-16068,-27,107,-33,103,-134,-136,-40,-35
,1386,2018/03/15 00:39:56.85,300,3260,-16094,-37,104,-32,112,-141,-144,-33,-40
,1387,2018/03/15 00:39:56.87,346,3288,-16092,-24,116,-21,115,-140,-136,-46,-47
,1388,2018/03/15 00:39:56.89,355,3277,-16050,-25,111,-29,111,-136,-140,-43,-41
,1389,2018/03/15 00:39:56.91,350,3211,-16068,-29,106,-28,103,-135,-131,-38,-37
,1390,2018/03/15 00:39:56.93,379,3274,-16196,-24,107,-23,111,-131,-134,-41,-44
,1391,2018/03/15 00:39:56.95,313,3201,-16066,-20,119,-31,112,-139,-143,-49,-40
,1392,2018/03/15 00:39:56.97,395,3236,-16120,-32,109,-30,102,-141,-132,-38,-36
,1393,2018/03/15 00:39:56.99,442,3219,-16099,-28,107,-28,104,-135,-132,-39,-38
,1394,2018/03/15 00:39:57.01,295,3225,-16097,-34,101,-29,110,-135,-139,-33,-40
,1395,2018/03/15 00:39:57.03,390,3210,-16150,-28,108,-37,96,-136,-133,-40,-29
,1396,2018/03/15 00:39:57.05,372,3225,-16064,-29,105,-28,106,-134,-134,-38,-39
,1397,2018/03/15 00:39:57.07,444,3199,-16032,-28,106,-30,106,-134,-136,-39,-38
,1398,2018/03/15 00:39:57.09,396,3241,-16084,-26,113,-23,114,-139,-137,-43,-45
,1399,2018/03/15 00:39:57.11,297,3241,-16066,-21,117,-22,119,-138,-141,-48,-48
,1400,2018/03/15 00:39:57.13,380,3308,-16100,-22,123,-21,123,-145,-144,-50,-51
,1401,2018/03/15 00:39:57.15,376,3290,-16071,-24,120,-26,117,-144,-143,-48,-45
,1402,2018/03/15 00:39:57.17,339,3254,-16081,-21,117,-16,117,-138,-133,-48,-50
,1403,2018/03/15 00:39:57.19,387,3263,-16061,-15,117,-18,115,-132,-133,-51,-48
,1404,2018/03/15 00:39:57.21,334,3215,-16096,-18,118,-21,115,-136,-136,-50,-47
,1405,2018/03/15 00:39:57.23,407,3224,-16087,-23,112,-22,113,-135,-135,-44,-45
,1406,2018/03/15 00:39:57.25,355,3235,-16068,-21,113,-23,111,-134,-134,-46,-44
,1407,2018/03/15 00:39:57.27,445,3271,-16110,-25,112,-27,120,-137,-147,-43,-46
,1408,2018/03/15 00:39:57.29,377,3281,-16097,-31,127,-37,130,-158,-167,-48,-46
,1409,2018/03/15 00:39:57.31,384,3319,-16020,-36,135,-31,137,-171,-168,-49,-53
,1410,2018/03/15 00:39:57.33,392,3207,-16131,-26,139,-28,136,-165,-164,-56,-54
,1411,2018/03/15 00:39:57.35,291,3246,-16082,-32,131,-25,139,-163,-164,-49,-57
,1412,2018/03/15 00:39:57.37,343,3135,-16102,-29,131,-34,123,-160,-157,-51,-44
,1413,2018/03/15 00:39:57.39,306,3074,-16138,-36,113,-36,115,-149,-151,-38,-39
,1414,2018/03/15 00:39:57.41,347,3170,-15958,-37,116,-39,115,-153,-154,-39,-38
,1415,2018/03/15 00:39:57.43,336,3244,-16011,-36,116,-33,115,-152,-148,-40,-41
,1416,2018/03/15 00:39:57.45,332,3353,-16103,-44,102,-36,112,-146,-148,-29,-38
,1417,2018/03/15 00:39:57.47,397,3287,-16119,-36,111,-35,114,-147,-149,-37,-39
,1418,2018/03/15 00:39:57.49,376,3307,-16106,-36,119,-42,113,-155,-155,-41,-35
,1419,2018/03/15 00:39:57.51,477,3276,-16045,-43,108,-37,110,-151,-147,-32,-36
,1420,2018/03/15 00:39:57.53,339,3193,-16054,-33,114,-32,119,-147,-151,-40,-43
,1421,2018/03/15 00:39:57.55,391,3137,-16086,-33,118,-34,118,-151,-152,-42,-42
,1422,2018/03/15 00:39:57.57,305,3192,-16098,-32,117,-34,115,-149,-149,-42,-40
,1423,2018/03/15 00:39:57.59,400,3236,-16092,-36,113,-37,113,-149,-150,-38,-38
,1424,2018/03/15 00:39:57.61,334,3171,-16071,-35,115,-34,119,-150,-153,-40,-42
,1425,2018/03/15 00:39:57.63,355,3220,-16074,-33,118,-32,114,-151,-146,-42,-41
,1426,2018/03/15 00:39:57.65,417,3192,-16065,-32,110,-26,112,-142,-138,-39,-43
,1427,2018/03/15 00:39:57.67,357,3207,-16062,-25,116,-24,118,-141,-142,-45,-47
,1428,2018/03/15 00:39:57.69,311,3196,-16145,-29,118,-38,102,-147,-140,-44,-32
,1429,2018/03/15 00:39:57.71,417,3204,-16091,-19,109,-11,126,-128,-137,-45,-57
,1430,2018/03/15 00:39:57.73,418,3284,-16062,-36,110,-45,93,-146,-138,-37,-24
,1431,2018/03/15 00:39:57.75,419,3264,-16056,-40,85,-43,73,-125,-116,-22,-15
,1432,2018/03/15 00:39:57.77,356,3238,-16133,-36,80,-47,72,-116,-119,-22,-12
,1433,2018/03/15 00:39:57.79,378,3268,-16079,-48,72,-56,59,-120,-115,-12,-1
,1434,2018/03/15 00:39:57.81,365,3220,-16086,-61,64,-67,61,-125,-128,-1,3
,1435,2018/03/15 00:39:57.83,313,3227,-16074,-72,56,-72,59,-128,-131,8,6
,1436,2018/03/15 00:39:57.85,338,3254,-16136,-68,68,-63,77,-136,-140,0,-7
,1437,2018/03/15 00:39:57.87,396,3278,-16108,-63,81,-65,83,-144,-148,-9,-9
,1438,2018/03/15 00:39:57.89,306,3319,-16025,-59,89,-56,90,-148,-146,-15,-17
,1439,2018/03/15 00:39:57.91,350,3341,-16096,-51,93,-52,96,-144,-148,-21,-22
,1440,2018/03/15 00:39:57.93,398,3260,-16082,-57,94,-60,91,-151,-151,-18,-15
,1441,2018/03/15 00:39:57.95,393,3282,-16083,-58,90,-54,91,-148,-145,-16,-18
,1442,2018/03/15 00:39:57.97,304,3170,-16089,-47,96,-45,100,-143,-145,-24,-27
,1443,2018/03/15 00:39:57.99,273,3227,-16036,-45,101,-45,100,-146,-145,-28,-27
,1444,2018/03/15 00:39:58.01,308,3219,-16109,-45,97,-43,94,-142,-137,-26,-25
,1445,2018/03/15 00:39:58.03,359,3258,-16026,-48,89,-52,88,-137,-140,-20,-18
,1446,2018/03/15 00:39:58.05,329,3247,-16071,-51,89,-48,92,-140,-140,-19,-22
,1447,2018/03/15 00:39:58.07,382,3233,-16115,-44,96,-46,98,-140,-144,-26,-26
,1448,2018/03/15 00:39:58.09,353,3203,-16126,-48,100,-46,100,-148,-146,-26,-27
,1449,2018/03/15 00:39:58.11,320,3172,-16116,-42,102,-39,104,-144,-143,-30,-32
,1450,2018/03/15 00:39:58.13,360,3148,-16109,-40,101,-43,94,-141,-137,-30,-25
,1451,2018/03/15 00:39:58.15,297,3054,-16093,-39,97,-39,96,-136,-135,-29,-28
,1452,2018/03/15 00:39:58.17,347,3058,-16006,-37,96,-29,104,-133,-133,-29,-37
,1453,2018/03/15 00:39:58.19,399,3214,-15980,-28,108,-29,111,-136,-140,-40,-41
,1454,2018/03/15 00:39:58.21,370,3264,-16102,-33,102,-27,111,-135,-138,-34,-42
,1455,2018/03/15 00:39:58.23,399,3339,-16175,-20,116,-23,113,-136,-136,-48,-45
,1456,2018/03/15 00:39:58.25,430,3275,-16124,-20,119,-27,111,-139,-138,-49,-42
,1457,2018/03/15 00:39:58.27,384,3230,-16040,-29,107,-29,106,-136,-135,-39,-38
,1458,2018/03/15 00:39:58.29,321,3161,-16071,-29,108,-26,110,-137,-136,-39,-42
,1459,2018/03/15 00:39:58.31,412,3178,-16142,-28,109,-29,107,-137,-136,-40,-39
,1460,2018/03/15 00:39:58.33,332,3167,-16115,-31,107,-34,103,-138,-137,-38,-34
,1461,2018/03/15 00:39:58.35,342,3258,-16095,-34,101,-32,104,-135,-136,-33,-36
,1462,2018/03/15 00:39:58.37,265,3303,-16076,-28,111,-26,115,-139,-141,-41,-44
,1463,2018/03/15 00:39:58.39,387,3320,-16074,-26,113,-27,114,-139,-141,-43,-43
,1464,2018/03/15 00:39:58.41,374,3283,-16092,-28,112,-28,114,-140,-142,-42,-43
,1465,2018/03/15 00:39:58.43,394,3254,-16008,-28,115,-29,113,-143,-142,-43,-42
,1466,2018/03/15 00:39:58.45,464,3276,-16075,-32,111,-34,108,-143,-142,-39,-37
,1467,2018/03/15 00:39:58.47,388,3214,-16085,-30,112,-30,114,-142,-144,-41,-42
,1468,2018/03/15 00:39:58.49,346,3228,-16097,-31,112,-30,112,-143,-142,-40,-41
,1469,2018/03/15 00:39:58.51,375,3252,-16076,-32,109,-32,109,-141,-141,-38,-38
,1470,2018/03/15 00:39:58.53,436,3225,-16052,-30,108,-24,110,-138,-134,-39,-43
,1471,2018/03/15 00:39:58.55,317,3230,-16127,-22,111,-25,108,-133,-133,-44,-41
,1472,2018/03/15 00:39:58.57,393,3210,-16063,-28,109,-28,115,-137,-143,-40,-43
,1473,2018/03/15 00:39:58.59,345,3217,-16050,-25,120,-30,103,-145,-133,-47,-36
,1474,2018/03/15 00:39:58.61,394,3196,-16111,-32,101,-32,101,-133,-133,-34,-34
,1475,2018/03/15 00:39:58.63,368,3228,-16035,-35,107,-38,107,-142,-145,-36,-34
,1476,2018/03/15 00:39:58.65,417,3292,-16119,-42,102,-34,111,-144,-145,-30,-38
,1477,2018/03/15 00:39:58.67,406,3264,-16122,-31,112,-28,110,-143,-138,-40,-41
,1478,2018/03/15 00:39:58.69,380,3227,-16102,-26,115,-33,112,-141,-145,-44,-39
,1479,2018/03/15 00:39:58.71,334,3235,-16105,-37,106,-33,108,-143,-141,-34,-37
,1480,2018/03/15 00:39:58.73,308,3172,-16060,-30,110,-34,107,-140,-141,-40,-36
,1481,2018/03/15 00:39:58.75,415,3167,-16111,-38,106,-33,107,-144,-140,-34,-37
,1482,2018/03/15 00:39:58.77,364,3264,-16037,-27,111,-31,106,-138,-137,-42,-37
,1483,2018/03/15 00:39:58.79,355,3256,-16072,-37,102,-40,99,-139,-139,-32,-29
,1484,2018/03/15 00:39:58.81,355,3219,-16078,-38,99,-30,105,-137,-135,-30,-37
,1485,2018/03/15 00:39:58.83,376,3227,-16035,-28,107,-28,109,-135,-137,-39,-40
,1486,2018/03/15 00:39:58.85,361,3233,-16119,-25,114,-20,119,-139,-139,-44,-49
,1487,2018/03/15 00:39:58.87,343,3215,-16084,-22,114,-29,103,-136,-132,-46,-37
,1488,2018/03/15 00:39:58.89,356,3153,-16160,-37,98,-31,105,-135,-136,-30,-37
,1489,2018/03/15 00:39:58.91,327,3200,-16155,-29,106,-30,106,-135,-136,-38,-38
,1490,2018/03/15 00:39:58.93,380,3152,-16026,-28,110,-36,107,-138,-143,-41,-35
,1491,2018/03/15 00:39:58.95,288,3259,-16034,-44,99,-45,94,-143,-139,-27,-24
,1492,2018/03/15 00:39:58.97,308,3261,-16138,-45,93,-44,95,-138,-139,-24,-25
,1493,2018/03/15 00:39:58.99,392,3309,-16137,-41,95,-37,102,-136,-139,-27,-32
,1494,2018/03/15 00:39:59.01,284,3196,-16060,-42,96,-44,95,-138,-139,-27,-25
,1495,2018/03/15 00:39:59.03,377,3241,-16026,-45,92,-47,93,-137,-140,-23,-23
,1496,2018/03/15 00:39:59.05,271,3150,-16032,-46,94,-53,86,-140,-139,-24,-16
,1497,2018/03/15 00:39:59.07,263,3122,-16124,-45,92,-42,93,-137,-135,-23,-25
,1498,2018/03/15 00:39:59.09,293,3219,-16108,-49,82,-41,95,-131,-136,-16,-27
,1499,2018/03/15 00:39:59.11,410,3344,-16091,-44,94,-39,96,-138,-135,-25,-28
,1500,2018/03/15 00:39:59.13,347,3275,-16150,-39,94,-36,96,-133,-132,-27,-30
