// Data mode  : Standard
// Transmission speed  : 50Hz
// Accelerometer sensor's range  : 2g
// Gyroscope sensor's range  : 250dps
//
//ARTIFACT,NUM,DATE,ACC_X,ACC_Y,ACC_Z,EOG_L1,EOG_R1,EOG_L2,EOG_R2,EOG_H1,EOG_H2,EOG_V1,EOG_V2
,1,2018/03/15 17:59:16.13,-380,2276,-16281,138,170,-11,20,-32,-31,-154,-4
,2,2018/03/15 17:59:16.15,-391,2195,-16210,48,73,114,145,-25,-31,-60,-129
,3,2018/03/15 17:59:16.17,-357,2205,-16157,-35,-8,142,172,-27,-30,21,-157
,4,2018/03/15 17:59:16.19,-372,2304,-16237,-3,28,37,62,-31,-25,-12,-49
,5,2018/03/15 17:59:16.21,-309,2317,-16326,113,150,-44,-15,-37,-29,-131,29
,6,2018/03/15 17:59:16.23,-338,2270,-16282,136,170,14,42,-34,-28,-153,-28
,7,2018/03/15 17:59:16.25,-384,2235,-16258,33,54,128,154,-21,-26,-43,-141
,8,2018/03/15 17:59:16.27,-298,2272,-16200,-31,-6,149,181,-25,-32,18,-165
,9,2018/03/15 17:59:16.29,-334,2211,-16213,38,71,28,55,-33,-27,-54,-41
,10,2018/03/15 17:59:16.31,-293,2184,-16279,134,167,-44,-19,-33,-25,-150,31
,11,2018/03/15 17:59:16.33,-308,2224,-16257,123,146,25,55,-23,-30,-134,-40
,12,2018/03/15 17:59:16.35,-288,2260,-16260,2,26,130,162,-24,-32,-14,-146
,13,2018/03/15 17:59:16.37,-253,2191,-16274,-46,-20,117,146,-26,-29,33,-131
,14,2018/03/15 17:59:16.39,-315,2252,-16201,43,75,2,26,-32,-24,-59,-14
,15,2018/03/15 17:59:16.41,-345,2236,-16250,154,186,-43,-15,-32,-28,-170,29
,16,2018/03/15 17:59:16.43,-309,2258,-16220,107,138,51,84,-31,-33,-122,-67
,17,2018/03/15 17:59:16.45,-347,2167,-16255,-4,29,143,186,-33,-43,-12,-164
,18,2018/03/15 17:59:16.47,-287,2225,-16200,-34,-3,97,132,-31,-35,18,-114
,19,2018/03/15 17:59:16.49,-396,2221,-16257,69,104,-12,20,-35,-32,-86,-4
,20,2018/03/15 17:59:16.51,-332,2211,-16277,147,186,-37,-5,-39,-32,-166,21
,21,2018/03/15 17:59:16.53,-312,2187,-16291,83,112,71,106,-29,-35,-97,-88
,22,2018/03/15 17:59:16.55,-249,2187,-16265,-23,3,146,178,-26,-32,10,-162
,23,2018/03/15 17:59:16.57,-284,2223,-16267,-34,-2,70,97,-32,-27,18,-83
,24,2018/03/15 17:59:16.59,-350,2240,-16216,75,113,-35,-2,-38,-33,-94,18
,25,2018/03/15 17:59:16.61,-384,2197,-16191,141,183,-22,14,-42,-36,-162,4
,26,2018/03/15 17:59:16.63,-325,2246,-16236,68,103,90,128,-35,-38,-85,-109
,27,2018/03/15 17:59:16.65,-317,2229,-16280,-43,-10,132,170,-33,-38,26,-151
,28,2018/03/15 17:59:16.67,-398,2221,-16287,-22,11,51,78,-33,-27,5,-64
,29,2018/03/15 17:59:16.69,-378,2248,-16301,99,127,-46,-21,-28,-25,-113,33
,30,2018/03/15 17:59:16.71,-309,2223,-16247,136,165,-10,22,-29,-32,-150,-6
,31,2018/03/15 17:59:16.73,-315,2252,-16217,41,66,106,140,-25,-34,-53,-123
,32,2018/03/15 17:59:16.75,-349,2252,-16252,-47,-21,129,159,-26,-30,34,-144
,33,2018/03/15 17:59:16.77,-284,2233,-16249,0,25,36,62,-25,-26,-12,-49
,34,2018/03/15 17:59:16.79,-365,2246,-16261,128,163,-33,-5,-35,-28,-145,19
,35,2018/03/15 17:59:16.81,-329,2263,-16238,139,169,27,51,-30,-24,-154,-39
,36,2018/03/15 17:59:16.83,-314,2291,-16251,20,44,126,153,-24,-27,-32,-139
,37,2018/03/15 17:59:16.85,-380,2235,-16260,-49,-24,122,157,-25,-35,36,-139
,38,2018/03/15 17:59:16.87,-302,2297,-16248,19,58,5,37,-39,-32,-38,-21
,39,2018/03/15 17:59:16.89,-274,2229,-16255,132,171,-34,-6,-39,-28,-151,20
,40,2018/03/15 17:59:16.91,-303,2243,-16296,133,171,46,88,-38,-42,-152,-67
,41,2018/03/15 17:59:16.93,-280,2277,-16249,13,47,145,184,-34,-39,-30,-164
,42,2018/03/15 17:59:16.95,-291,2249,-16217,-40,-8,113,147,-32,-34,24,-130
,43,2018/03/15 17:59:16.97,-270,2261,-16252,50,89,0,26,-39,-26,-69,-13
,44,2018/03/15 17:59:16.99,-346,2185,-16213,137,178,-45,-9,-41,-36,-157,27
,45,2018/03/15 17:59:17.01,-299,2151,-16208,100,139,59,100,-39,-41,-119,-79
,46,2018/03/15 17:59:17.03,-321,2230,-16280,-12,24,142,180,-36,-38,-6,-161
,47,2018/03/15 17:59:17.05,-262,2253,-16268,-40,-3,90,126,-37,-36,21,-108
,48,2018/03/15 17:59:17.07,-332,2260,-16302,67,107,-21,14,-40,-35,-87,3
,49,2018/03/15 17:59:17.09,-343,2242,-16246,146,191,-31,10,-45,-41,-168,10
,50,2018/03/15 17:59:17.11,-379,2262,-16176,85,124,76,121,-39,-45,-104,-98
,51,2018/03/15 17:59:17.13,-390,2310,-16203,-28,3,138,178,-31,-40,12,-158
,52,2018/03/15 17:59:17.15,-337,2278,-16276,-30,9,69,105,-39,-36,10,-87
,53,2018/03/15 17:59:17.17,-351,2261,-16243,81,124,-41,-7,-43,-34,-102,24
,54,2018/03/15 17:59:17.19,-308,2266,-16252,140,176,-22,10,-36,-32,-158,6
,55,2018/03/15 17:59:17.21,-287,2312,-16233,56,90,89,129,-34,-40,-73,-109
,56,2018/03/15 17:59:17.23,-313,2213,-16288,-30,3,140,179,-33,-39,13,-159
,57,2018/03/15 17:59:17.25,-281,2310,-16254,-3,28,51,76,-31,-25,-12,-63
,58,2018/03/15 17:59:17.27,-332,2324,-16259,113,148,-33,-2,-35,-31,-130,17
,59,2018/03/15 17:59:17.29,-325,2270,-16283,150,186,12,48,-36,-36,-168,-30
,60,2018/03/15 17:59:17.31,-293,2234,-16230,50,81,128,163,-31,-35,-65,-145
,61,2018/03/15 17:59:17.33,-277,2314,-16281,-36,-10,137,171,-26,-34,23,-154
,62,2018/03/15 17:59:17.35,-297,2279,-16294,10,46,32,63,-36,-31,-28,-47
,63,2018/03/15 17:59:17.37,-267,2303,-16255,120,158,-45,-14,-38,-31,-139,29
,64,2018/03/15 17:59:17.39,-266,2250,-16213,128,157,16,51,-29,-35,-142,-33
,65,2018/03/15 17:59:17.41,-332,2262,-16197,22,50,137,173,-28,-36,-36,-155
,66,2018/03/15 17:59:17.43,-261,2225,-16227,-39,-11,128,156,-28,-28,25,-142
,67,2018/03/15 17:59:17.45,-347,2358,-16314,34,66,16,47,-32,-31,-50,-31
,68,2018/03/15 17:59:17.47,-316,2256,-16260,136,173,-45,-14,-37,-31,-154,29
,69,2018/03/15 17:59:17.49,-286,2299,-16256,114,147,44,81,-33,-37,-130,-62
,70,2018/03/15 17:59:17.51,-327,2296,-16231,6,34,138,178,-28,-40,-20,-158
,71,2018/03/15 17:59:17.53,-357,2312,-16233,-38,-5,121,155,-33,-34,21,-138
,72,2018/03/15 17:59:17.55,-257,2316,-16257,58,95,-5,21,-37,-26,-76,-8
,73,2018/03/15 17:59:17.57,-358,2240,-16266,144,182,-36,-4,-38,-32,-163,20
,74,2018/03/15 17:59:17.59,-293,2330,-16212,101,137,68,110,-36,-42,-119,-89
,75,2018/03/15 17:59:17.61,-371,2298,-16266,-8,24,149,188,-32,-39,-8,-168
,76,2018/03/15 17:59:17.63,-380,2327,-16202,-31,1,97,133,-32,-36,15,-115
,77,2018/03/15 17:59:17.65,-335,2271,-16306,72,116,-29,5,-44,-34,-94,12
,78,2018/03/15 17:59:17.67,-410,2276,-16278,130,162,-42,-10,-32,-32,-146,26
,79,2018/03/15 17:59:17.69,-298,2294,-16262,70,100,77,116,-30,-39,-85,-96
,80,2018/03/15 17:59:17.71,-367,2313,-16237,-30,1,142,184,-31,-42,14,-163
,81,2018/03/15 17:59:17.73,-327,2277,-16188,-30,8,58,94,-38,-36,11,-76
,82,2018/03/15 17:59:17.75,-345,2284,-16282,94,134,-26,4,-40,-30,-114,11
,83,2018/03/15 17:59:17.77,-369,2220,-16283,149,180,-13,20,-31,-33,-164,-3
,84,2018/03/15 17:59:17.79,-348,2251,-16311,60,88,106,143,-28,-37,-74,-124
,85,2018/03/15 17:59:17.81,-299,2249,-16226,-34,-4,143,175,-30,-32,19,-159
,86,2018/03/15 17:59:17.83,-277,2248,-16212,-6,25,50,82,-31,-32,-9,-66
,87,2018/03/15 17:59:17.85,-288,2221,-16176,111,152,-43,-9,-41,-34,-131,26
,88,2018/03/15 17:59:17.87,-292,2331,-16214,130,168,-1,32,-38,-33,-149,-15
,89,2018/03/15 17:59:17.89,-317,2341,-16238,35,62,117,154,-27,-37,-48,-135
,90,2018/03/15 17:59:17.91,-291,2263,-16322,-47,-16,133,169,-31,-36,31,-151
,91,2018/03/15 17:59:17.93,-305,2297,-16276,7,44,21,49,-37,-28,-25,-35
,92,2018/03/15 17:59:17.95,-366,2278,-16249,121,158,-44,-7,-37,-37,-139,25
,93,2018/03/15 17:59:17.97,-353,2353,-16242,132,176,29,73,-44,-44,-154,-51
,94,2018/03/15 17:59:17.99,-365,2256,-16247,20,54,133,171,-34,-38,-37,-152
,95,2018/03/15 17:59:18.01,-340,2337,-16221,-46,-16,115,152,-30,-37,31,-133
,96,2018/03/15 17:59:18.03,-346,2240,-16268,26,66,3,35,-40,-32,-46,-19
,97,2018/03/15 17:59:18.05,-277,2354,-16217,142,185,-38,-4,-43,-34,-163,21
,98,2018/03/15 17:59:18.07,-304,2335,-16240,120,153,50,81,-33,-31,-136,-65
,99,2018/03/15 17:59:18.09,-310,2319,-16343,0,28,139,174,-28,-35,-14,-156
,100,2018/03/15 17:59:18.11,-323,2257,-16266,-41,-11,102,130,-30,-28,26,-116
,101,2018/03/15 17:59:18.13,-345,2307,-16211,54,92,-4,24,-38,-28,-73,-10
,102,2018/03/15 17:59:18.15,-363,2226,-16195,148,186,-24,1,-38,-25,-167,11
,103,2018/03/15 17:59:18.17,-330,2280,-16193,103,130,67,97,-27,-30,-116,-82
,104,2018/03/15 17:59:18.19,-336,2241,-16233,-27,0,133,169,-27,-36,13,-151
,105,2018/03/15 17:59:18.21,-312,2224,-16284,-41,-9,83,113,-32,-30,25,-98
,106,2018/03/15 17:59:18.23,-213,2276,-16264,73,108,-26,2,-35,-28,-90,12
,107,2018/03/15 17:59:18.25,-313,2291,-16278,140,176,-30,2,-36,-32,-158,14
,108,2018/03/15 17:59:18.27,-315,2273,-16225,75,105,91,124,-30,-33,-90,-107
,109,2018/03/15 17:59:18.29,-308,2200,-16285,-23,3,153,191,-26,-38,10,-172
,110,2018/03/15 17:59:18.31,-276,2220,-16268,-13,22,68,99,-35,-31,-4,-83
,111,2018/03/15 17:59:18.33,-254,2225,-16258,99,138,-28,1,-39,-29,-118,13
,112,2018/03/15 17:59:18.35,-361,2203,-16232,146,184,-13,20,-38,-33,-165,-3
,113,2018/03/15 17:59:18.37,-314,2238,-16269,49,76,108,139,-27,-31,-62,-123
,114,2018/03/15 17:59:18.39,-302,2236,-16242,-31,-6,147,181,-25,-34,18,-164
,115,2018/03/15 17:59:18.41,-372,2288,-16236,-4,27,33,58,-31,-25,-11,-45
,116,2018/03/15 17:59:18.43,-271,2267,-16249,100,134,-48,-20,-34,-28,-117,34
,117,2018/03/15 17:59:18.45,-252,2258,-16220,136,166,12,52,-30,-40,-151,-32
,118,2018/03/15 17:59:18.47,-364,2296,-16202,32,65,119,162,-33,-43,-48,-140
,119,2018/03/15 17:59:18.49,-303,2172,-16263,-40,-14,131,170,-26,-39,27,-150
,120,2018/03/15 17:59:18.51,-288,2235,-16231,16,56,16,50,-40,-34,-36,-33
,121,2018/03/15 17:59:18.53,-382,2242,-16311,120,165,-48,-11,-45,-37,-142,29
,122,2018/03/15 17:59:18.55,-270,2301,-16309,128,160,23,61,-32,-38,-144,-42
,123,2018/03/15 17:59:18.57,-263,2295,-16259,4,35,122,163,-31,-41,-19,-142
,124,2018/03/15 17:59:18.59,-386,2274,-16234,-49,-18,116,152,-31,-36,33,-134
,125,2018/03/15 17:59:18.61,-310,2303,-16196,37,78,0,34,-41,-34,-57,-17
,126,2018/03/15 17:59:18.63,-251,2270,-16245,127,165,-51,-19,-38,-32,-146,35
,127,2018/03/15 17:59:18.65,-311,2306,-16230,113,144,53,94,-31,-41,-128,-73
,128,2018/03/15 17:59:18.67,-345,2219,-16296,-2,29,138,178,-31,-40,-13,-158
,129,2018/03/15 17:59:18.69,-272,2258,-16276,-38,-9,101,132,-29,-31,23,-116
,130,2018/03/15 17:59:18.71,-293,2238,-16242,52,92,-22,9,-40,-31,-72,6
,131,2018/03/15 17:59:18.73,-262,2232,-16279,140,177,-35,-3,-37,-32,-158,19
,132,2018/03/15 17:59:18.75,-256,2212,-16261,94,125,67,107,-31,-40,-109,-87
,133,2018/03/15 17:59:18.77,-322,2187,-16207,-24,10,138,180,-34,-42,7,-159
,134,2018/03/15 17:59:18.79,-354,2238,-16288,-33,6,85,124,-39,-39,13,-104
,135,2018/03/15 17:59:18.81,-348,2182,-16248,86,133,-25,11,-47,-36,-109,7
,136,2018/03/15 17:59:18.83,-286,2250,-16287,144,185,-22,12,-41,-34,-164,5
,137,2018/03/15 17:59:18.85,-224,2187,-16317,81,111,97,136,-30,-39,-96,-116
,138,2018/03/15 17:59:18.87,-286,2272,-16264,-24,13,142,182,-37,-40,5,-162
,139,2018/03/15 17:59:18.89,-266,2176,-16276,-19,19,66,99,-38,-33,0,-82
,140,2018/03/15 17:59:18.91,-288,2207,-16248,100,147,-37,1,-47,-38,-123,18
,141,2018/03/15 17:59:18.93,-310,2257,-16252,132,174,-13,27,-42,-40,-153,-7
,142,2018/03/15 17:59:18.95,-327,2224,-16302,47,82,90,132,-35,-42,-64,-111
,143,2018/03/15 17:59:18.97,-305,2226,-16261,-48,-12,129,169,-36,-40,30,-149
,144,2018/03/15 17:59:18.99,-301,2275,-16282,-12,30,30,68,-42,-38,-9,-49
,145,2018/03/15 17:59:19.01,-242,2231,-16304,106,155,-51,-13,-49,-38,-130,32
,146,2018/03/15 17:59:19.03,-199,2214,-16269,123,163,-3,38,-40,-41,-143,-17
,147,2018/03/15 17:59:19.05,-243,2210,-16209,24,59,121,164,-35,-43,-41,-142
,148,2018/03/15 17:59:19.07,-379,2137,-16263,-47,-13,124,161,-34,-37,30,-142
,149,2018/03/15 17:59:19.09,-262,2224,-16243,16,58,15,52,-42,-37,-37,-33
,150,2018/03/15 17:59:19.11,-368,2202,-16288,121,164,-56,-21,-43,-35,-142,38
,151,2018/03/15 17:59:19.13,-301,2262,-16286,108,146,14,54,-38,-40,-127,-34
,152,2018/03/15 17:59:19.15,-279,2260,-16269,-4,30,120,162,-34,-42,-13,-141
,153,2018/03/15 17:59:19.17,-313,2261,-16251,-56,-21,106,142,-35,-36,38,-124
,154,2018/03/15 17:59:19.19,-298,2261,-16288,36,76,-4,29,-40,-33,-56,-12
,155,2018/03/15 17:59:19.21,-376,2276,-16248,131,176,-48,-11,-45,-37,-153,29
,156,2018/03/15 17:59:19.23,-342,2208,-16244,103,138,48,90,-35,-42,-120,-69
,157,2018/03/15 17:59:19.25,-305,2237,-16262,-11,25,138,181,-36,-43,-7,-159
,158,2018/03/15 17:59:19.27,-289,2142,-16216,-37,0,104,144,-37,-40,18,-124
,159,2018/03/15 17:59:19.29,-364,2233,-16215,61,103,-16,18,-42,-34,-82,-1
,160,2018/03/15 17:59:19.31,-382,2221,-16287,151,190,-35,0,-39,-35,-170,17
,161,2018/03/15 17:59:19.33,-248,2333,-16314,85,119,62,102,-34,-40,-102,-82
,162,2018/03/15 17:59:19.35,-358,2241,-16274,-25,6,142,178,-31,-36,9,-160
,163,2018/03/15 17:59:19.37,-373,2239,-16241,-31,1,79,110,-32,-31,15,-94
,164,2018/03/15 17:59:19.39,-289,2295,-16199,84,122,-26,3,-38,-29,-103,11
,165,2018/03/15 17:59:19.41,-318,2225,-16269,151,186,-20,8,-35,-28,-168,6
,166,2018/03/15 17:59:19.43,-388,2218,-16275,67,94,91,127,-27,-36,-80,-109
,167,2018/03/15 17:59:19.45,-290,2297,-16250,-33,-4,145,181,-29,-36,18,-163
,168,2018/03/15 17:59:19.47,-331,2257,-16244,-16,17,55,87,-33,-32,0,-71
,169,2018/03/15 17:59:19.49,-365,2205,-16286,98,138,-40,-8,-40,-32,-118,24
,170,2018/03/15 17:59:19.51,-364,2194,-16228,141,178,-8,24,-37,-32,-159,-8
,171,2018/03/15 17:59:19.53,-293,2206,-16253,38,64,97,133,-26,-36,-51,-115
,172,2018/03/15 17:59:19.55,-356,2175,-16202,-52,-23,127,157,-29,-30,37,-142
,173,2018/03/15 17:59:19.57,-301,2184,-16234,-3,28,32,60,-31,-28,-12,-46
,174,2018/03/15 17:59:19.59,-327,2205,-16239,110,150,-53,-19,-40,-34,-130,36
,175,2018/03/15 17:59:19.61,-312,2191,-16275,126,162,2,39,-36,-37,-144,-20
,176,2018/03/15 17:59:19.63,-294,2234,-16246,16,47,117,153,-31,-36,-31,-135
,177,2018/03/15 17:59:19.65,-348,2168,-16260,-47,-18,130,162,-29,-32,32,-146
,178,2018/03/15 17:59:19.67,-307,2173,-16264,25,59,16,44,-34,-28,-42,-30
,179,2018/03/15 17:59:19.69,-281,2218,-16208,122,169,-50,-17,-47,-33,-145,33
,180,2018/03/15 17:59:19.71,-296,2233,-16218,123,157,45,82,-34,-37,-140,-63
,181,2018/03/15 17:59:19.73,-287,2234,-16208,14,44,138,173,-30,-35,-29,-155
,182,2018/03/15 17:59:19.75,-270,2232,-16260,-43,-16,118,144,-27,-26,29,-131
,183,2018/03/15 17:59:19.77,-284,2258,-16307,45,75,-1,22,-30,-23,-60,-10
,184,2018/03/15 17:59:19.79,-241,2195,-16210,136,168,-46,-22,-32,-24,-152,34
,185,2018/03/15 17:59:19.81,-299,2141,-16229,102,127,56,85,-25,-29,-114,-70
,186,2018/03/15 17:59:19.83,-266,2228,-16261,-10,13,141,173,-23,-32,-1,-157
,187,2018/03/15 17:59:19.85,-333,2209,-16272,-40,-12,92,120,-28,-28,26,-106
,188,2018/03/15 17:59:19.87,-355,2191,-16260,62,92,-18,6,-30,-24,-77,6
,189,2018/03/15 17:59:19.89,-325,2295,-16288,146,179,-32,-5,-33,-27,-162,18
,190,2018/03/15 17:59:19.91,-321,2211,-16241,86,113,73,108,-27,-35,-99,-90
,191,2018/03/15 17:59:19.93,-311,2210,-16236,-26,2,139,176,-28,-37,12,-157
,192,2018/03/15 17:59:19.95,-284,2247,-16305,-32,-3,74,96,-29,-22,17,-85
,193,2018/03/15 17:59:19.97,-348,2250,-16269,83,113,-34,-12,-30,-22,-98,23
,194,2018/03/15 17:59:19.99,-263,2257,-16274,136,160,-25,-2,-24,-23,-148,13
,195,2018/03/15 17:59:20.01,-343,2274,-16253,68,90,99,131,-22,-32,-79,-115
,196,2018/03/15 17:59:20.03,-295,2256,-16263,-31,-5,144,177,-26,-33,18,-160
,197,2018/03/15 17:59:20.05,-376,2284,-16284,-17,14,51,79,-31,-28,1,-65
,198,2018/03/15 17:59:20.07,-281,2141,-16247,108,140,-32,-8,-32,-24,-124,20
,199,2018/03/15 17:59:20.09,-295,2185,-16203,149,177,0,32,-28,-32,-163,-16
,200,2018/03/15 17:59:20.11,-285,2232,-16212,51,71,112,142,-20,-30,-61,-127
,201,2018/03/15 17:59:20.13,-247,2251,-16320,-42,-19,129,158,-23,-29,30,-143
,202,2018/03/15 17:59:20.15,-275,2298,-16293,3,32,34,56,-29,-22,-17,-45
,203,2018/03/15 17:59:20.17,-353,2245,-16292,122,154,-44,-21,-32,-23,-138,32
,204,2018/03/15 17:59:20.19,-252,2277,-16181,129,156,13,41,-27,-28,-142,-27
,205,2018/03/15 17:59:20.21,-351,2257,-16226,28,49,132,163,-21,-31,-38,-147
,206,2018/03/15 17:59:20.23,-331,2192,-16303,-37,-10,140,172,-27,-32,23,-156
,207,2018/03/15 17:59:20.25,-296,2192,-16220,42,75,27,53,-33,-26,-58,-40
,208,2018/03/15 17:59:20.27,-288,2217,-16289,131,165,-47,-19,-34,-28,-148,33
,209,2018/03/15 17:59:20.29,-296,2195,-16252,120,151,37,70,-31,-33,-135,-53
,210,2018/03/15 17:59:20.31,-284,2194,-16229,5,32,133,167,-27,-34,-18,-150
,211,2018/03/15 17:59:20.33,-362,2205,-16264,-46,-19,106,136,-27,-30,32,-121
,212,2018/03/15 17:59:20.35,-337,2252,-16254,42,72,-4,19,-30,-23,-57,-7
,213,2018/03/15 17:59:20.37,-323,2152,-16222,140,172,-38,-9,-32,-29,-156,23
,214,2018/03/15 17:59:20.39,-253,2272,-16245,108,138,60,96,-30,-36,-123,-78
,215,2018/03/15 17:59:20.41,-302,2252,-16226,-11,16,146,180,-27,-34,-2,-163
,216,2018/03/15 17:59:20.43,-268,2178,-16273,-32,-2,99,128,-30,-29,17,-113
,217,2018/03/15 17:59:20.45,-326,2253,-16296,73,107,-12,14,-34,-26,-90,-1
,218,2018/03/15 17:59:20.47,-332,2200,-16272,152,184,-26,-3,-32,-23,-168,14
,219,2018/03/15 17:59:20.49,-256,2213,-16256,85,108,80,111,-23,-31,-96,-95
,220,2018/03/15 17:59:20.51,-285,2209,-16230,-16,12,158,187,-28,-29,2,-172
,221,2018/03/15 17:59:20.53,-281,2194,-16231,-11,13,95,114,-24,-19,-1,-104
,222,2018/03/15 17:59:20.55,-289,2252,-16287,102,131,-23,-1,-29,-22,-116,12
,223,2018/03/15 17:59:20.57,-265,2208,-16272,144,170,-18,7,-26,-25,-157,5
,224,2018/03/15 17:59:20.59,-243,2204,-16258,63,87,96,127,-24,-31,-75,-111
,225,2018/03/15 17:59:20.61,-293,2209,-16273,-30,-4,146,178,-26,-32,17,-162
,226,2018/03/15 17:59:20.63,-251,2243,-16240,-8,23,55,82,-31,-27,-7,-68
,227,2018/03/15 17:59:20.65,-267,2251,-16283,112,144,-32,-9,-32,-23,-128,20
,228,2018/03/15 17:59:20.67,-254,2206,-16261,142,170,-2,26,-28,-28,-156,-12
,229,2018/03/15 17:59:20.69,-294,2212,-16295,43,68,115,148,-25,-33,-55,-131
,230,2018/03/15 17:59:20.71,-201,2196,-16300,-41,-14,137,170,-27,-33,27,-153
,231,2018/03/15 17:59:20.73,-283,2254,-16239,12,46,39,69,-34,-30,-29,-54
,232,2018/03/15 17:59:20.75,-292,2293,-16241,126,164,-43,-13,-38,-30,-145,28
,233,2018/03/15 17:59:20.77,-303,2275,-16298,127,164,11,51,-37,-40,-145,-31
,234,2018/03/15 17:59:20.79,-282,2273,-16258,15,49,122,163,-34,-41,-32,-142
,235,2018/03/15 17:59:20.81,-288,2299,-16250,-48,-16,121,156,-32,-35,32,-138
,236,2018/03/15 17:59:20.83,-370,2284,-16277,24,60,10,39,-36,-29,-42,-24
,237,2018/03/15 17:59:20.85,-241,2269,-16257,131,169,-45,-15,-38,-30,-150,30
,238,2018/03/15 17:59:20.87,-193,2270,-16229,120,153,48,81,-33,-33,-136,-64
,239,2018/03/15 17:59:20.89,-347,2185,-16246,12,36,137,173,-24,-36,-24,-155
,240,2018/03/15 17:59:20.91,-380,2252,-16294,-41,-10,115,156,-31,-41,25,-135
,241,2018/03/15 17:59:20.93,-325,2358,-16278,55,88,-3,21,-33,-24,-71,-9
,242,2018/03/15 17:59:20.95,-254,2351,-16298,145,174,-39,-13,-29,-26,-159,26
,243,2018/03/15 17:59:20.97,-334,2264,-16252,105,133,55,87,-28,-32,-119,-71
,244,2018/03/15 17:59:20.99,-348,2212,-16237,-18,7,139,172,-25,-33,5,-155
,245,2018/03/15 17:59:21.01,-296,2283,-16157,-37,-6,92,124,-31,-32,21,-108
,246,2018/03/15 17:59:21.03,-246,2292,-16233,74,112,-15,12,-38,-27,-93,1
,247,2018/03/15 17:59:21.05,-227,2279,-16285,141,177,-40,-7,-36,-33,-159,23
,248,2018/03/15 17:59:21.07,-308,2296,-16267,68,97,65,100,-29,-35,-82,-82
,249,2018/03/15 17:59:21.09,-256,2279,-16254,-39,-10,136,171,-29,-35,24,-153
,250,2018/03/15 17:59:21.11,-255,2280,-16286,-31,-2,66,92,-29,-26,16,-79
,251,2018/03/15 17:59:21.13,-300,2243,-16243,85,119,-41,-12,-34,-29,-102,26
,252,2018/03/15 17:59:21.15,-324,2234,-16250,129,164,-26,6,-35,-32,-146,10
,253,2018/03/15 17:59:21.17,-305,2155,-16218,60,88,96,129,-28,-33,-74,-112
,254,2018/03/15 17:59:21.19,-327,2251,-16192,-44,-16,132,166,-28,-34,30,-149
,255,2018/03/15 17:59:21.21,-326,2245,-16243,-19,13,41,69,-32,-28,3,-55
,256,2018/03/15 17:59:21.23,-273,2295,-16324,98,136,-48,-17,-38,-31,-117,32
,257,2018/03/15 17:59:21.25,-295,2282,-16244,132,169,-8,25,-37,-33,-150,-8
,258,2018/03/15 17:59:21.27,-283,2252,-16223,32,58,112,144,-26,-32,-45,-128
,259,2018/03/15 17:59:21.29,-264,2289,-16211,-39,-16,142,168,-23,-26,27,-155
,260,2018/03/15 17:59:21.31,-331,2259,-16231,14,42,34,59,-28,-25,-28,-46
,261,2018/03/15 17:59:21.33,-264,2290,-16235,119,160,-46,-16,-41,-30,-139,31
,262,2018/03/15 17:59:21.35,-248,2285,-16284,128,163,26,60,-35,-34,-145,-43
,263,2018/03/15 17:59:21.37,-269,2250,-16304,21,48,132,164,-27,-32,-34,-148
,264,2018/03/15 17:59:21.39,-324,2256,-16237,-46,-21,125,157,-25,-32,33,-141
,265,2018/03/15 17:59:21.41,-260,2249,-16275,40,74,22,49,-34,-27,-57,-35
,266,2018/03/15 17:59:21.43,-272,2222,-16301,134,168,-53,-23,-34,-30,-151,38
,267,2018/03/15 17:59:21.45,-257,2225,-16297,104,137,38,71,-33,-33,-120,-54
,268,2018/03/15 17:59:21.47,-177,2200,-16234,4,29,137,172,-25,-35,-16,-154
,269,2018/03/15 17:59:21.49,-359,2281,-16265,-49,-20,98,127,-29,-29,34,-112
,270,2018/03/15 17:59:21.51,-261,2216,-16301,44,80,-13,19,-36,-32,-62,-3
,271,2018/03/15 17:59:21.53,-264,2268,-16367,133,174,-50,-16,-41,-34,-153,33
,272,2018/03/15 17:59:21.55,-261,2341,-16289,85,118,51,86,-33,-35,-101,-68
,273,2018/03/15 17:59:21.57,-323,2373,-16276,-22,6,138,170,-28,-32,8,-154
,274,2018/03/15 17:59:21.59,-276,2333,-16244,-40,-13,81,108,-27,-27,26,-94
,275,2018/03/15 17:59:21.61,-323,2313,-16156,62,95,-31,-4,-33,-27,-78,17
,276,2018/03/15 17:59:21.63,-420,2209,-16265,137,174,-36,-6,-37,-30,-155,21
,277,2018/03/15 17:59:21.65,-329,2241,-16239,71,98,74,109,-27,-35,-84,-91
,278,2018/03/15 17:59:21.67,-316,2278,-16255,-34,-4,139,176,-30,-37,19,-157
,279,2018/03/15 17:59:21.69,-280,2316,-16268,-27,5,65,96,-32,-31,11,-80
,280,2018/03/15 17:59:21.71,-313,2262,-16249,95,131,-27,1,-36,-28,-113,13
,281,2018/03/15 17:59:21.73,-299,2243,-16215,151,186,-22,13,-35,-35,-168,4
,282,2018/03/15 17:59:21.75,-314,2300,-16180,56,83,101,137,-27,-36,-69,-119
,283,2018/03/15 17:59:21.77,-245,2280,-16229,-29,-2,141,173,-27,-32,15,-157
,284,2018/03/15 17:59:21.79,-267,2229,-16278,-10,18,42,66,-28,-24,-4,-54
,285,2018/03/15 17:59:21.81,-232,2239,-16319,106,140,-38,-10,-34,-28,-123,24
,286,2018/03/15 17:59:21.83,-297,2197,-16271,144,177,5,36,-33,-31,-160,-20
,287,2018/03/15 17:59:21.85,-289,2222,-16320,39,65,116,150,-26,-34,-52,-133
,288,2018/03/15 17:59:21.87,-316,2255,-16226,-44,-17,134,164,-27,-30,30,-149
,289,2018/03/15 17:59:21.89,-299,2245,-16275,13,42,28,52,-29,-24,-27,-40
,290,2018/03/15 17:59:21.91,-335,2173,-16262,122,155,-45,-19,-33,-26,-138,32
,291,2018/03/15 17:59:21.93,-207,2244,-16137,129,155,18,45,-26,-27,-142,-31
,292,2018/03/15 17:59:21.95,-224,2295,-16243,13,35,128,162,-22,-34,-24,-145
,293,2018/03/15 17:59:21.97,-263,2251,-16361,-44,-14,119,152,-30,-33,29,-135
,294,2018/03/15 17:59:21.99,-356,2193,-16302,23,56,1,27,-33,-26,-39,-14
,295,2018/03/15 17:59:22.01,-299,2230,-16248,128,165,-48,-15,-37,-33,-146,31
,296,2018/03/15 17:59:22.03,-240,2191,-16262,113,147,45,80,-34,-35,-130,-62
,297,2018/03/15 17:59:22.05,-319,2200,-16228,0,29,135,170,-29,-35,-14,-152
,298,2018/03/15 17:59:22.07,-253,2278,-16196,-46,-15,102,135,-31,-33,30,-118
,299,2018/03/15 17:59:22.09,-281,2283,-16244,53,90,-4,24,-37,-28,-71,-10
,300,2018/03/15 17:59:22.11,-283,2231,-16251,150,184,-29,-1,-34,-28,-167,15
,301,2018/03/15 17:59:22.13,-277,2316,-16295,98,131,64,104,-33,-40,-114,-84
,302,2018/03/15 17:59:22.15,-230,2234,-16268,-24,12,149,190,-36,-41,6,-169
,303,2018/03/15 17:59:22.17,-234,2256,-16243,-28,10,99,139,-38,-40,9,-119
,304,2018/03/15 17:59:22.19,-269,2228,-16284,82,127,-18,16,-45,-34,-104,1
,305,2018/03/15 17:59:22.21,-285,2220,-16277,141,180,-26,10,-39,-36,-160,8
,306,2018/03/15 17:59:22.23,-215,2209,-16304,85,120,90,133,-35,-43,-102,-111
,307,2018/03/15 17:59:22.25,-319,2224,-16308,-28,4,143,180,-32,-37,12,-161
,308,2018/03/15 17:59:22.27,-288,2257,-16283,-22,11,69,100,-33,-31,5,-84
,309,2018/03/15 17:59:22.29,-272,2305,-16219,92,128,-35,-9,-36,-26,-110,22
,310,2018/03/15 17:59:22.31,-330,2258,-16304,140,171,-15,13,-31,-28,-155,1
,311,2018/03/15 17:59:22.33,-300,2247,-16271,58,83,100,129,-25,-29,-70,-114
,312,2018/03/15 17:59:22.35,-275,2266,-16263,-42,-18,135,164,-24,-29,30,-149
,313,2018/03/15 17:59:22.37,-265,2202,-16247,-10,20,44,71,-30,-27,-5,-57
,314,2018/03/15 17:59:22.39,-291,2242,-16220,107,140,-46,-21,-33,-25,-123,33
,315,2018/03/15 17:59:22.41,-243,2244,-16198,129,160,-6,26,-31,-32,-144,-10
,316,2018/03/15 17:59:22.43,-334,2348,-16256,32,61,121,158,-29,-37,-46,-139
,317,2018/03/15 17:59:22.45,-351,2386,-16314,-42,-12,129,162,-30,-33,27,-145
,318,2018/03/15 17:59:22.47,-282,2309,-16338,9,42,24,51,-33,-27,-25,-37
,319,2018/03/15 17:59:22.49,-387,2269,-16277,123,156,-46,-21,-33,-25,-139,33
,320,2018/03/15 17:59:22.51,-274,2260,-16165,123,152,20,51,-29,-31,-137,-35
,321,2018/03/15 17:59:22.53,-380,2264,-16178,23,44,133,165,-21,-32,-33,-149
,322,2018/03/15 17:59:22.55,-320,2263,-16276,-47,-18,102,138,-29,-36,32,-120
,323,2018/03/15 17:59:22.57,-299,2282,-16231,32,73,10,42,-41,-32,-52,-26
,324,2018/03/15 17:59:22.59,-279,2270,-16345,138,180,-46,-16,-42,-30,-159,31
,325,2018/03/15 17:59:22.61,-330,2253,-16295,107,140,35,70,-33,-35,-123,-52
,326,2018/03/15 17:59:22.63,-223,2234,-16258,-8,20,129,162,-28,-33,-6,-145
,327,2018/03/15 17:59:22.65,-270,2227,-16252,-50,-21,97,129,-29,-32,35,-113
,328,2018/03/15 17:59:22.67,-227,2210,-16223,53,90,-5,23,-37,-28,-71,-9
,329,2018/03/15 17:59:22.69,-317,2190,-16246,144,181,-39,-8,-37,-31,-162,23
,330,2018/03/15 17:59:22.71,-330,2231,-16239,94,124,68,104,-30,-36,-109,-86
,331,2018/03/15 17:59:22.73,-295,2217,-16306,-10,17,146,182,-27,-36,-3,-164
,332,2018/03/15 17:59:22.75,-370,2232,-16260,-31,-2,91,119,-29,-28,16,-105
,333,2018/03/15 17:59:22.77,-402,2252,-16268,77,110,-24,3,-33,-27,-93,10
,334,2018/03/15 17:59:22.79,-256,2254,-16235,139,175,-34,-3,-36,-31,-157,18
,335,2018/03/15 17:59:22.81,-298,2276,-16260,71,99,84,123,-28,-39,-85,-103
,336,2018/03/15 17:59:22.83,-329,2225,-16242,-27,4,148,183,-31,-35,11,-165
,337,2018/03/15 17:59:22.85,-275,2222,-16207,-18,12,69,98,-30,-29,3,-83
,338,2018/03/15 17:59:22.87,-225,2235,-16286,97,134,-28,0,-37,-28,-115,14
,339,2018/03/15 17:59:22.89,-288,2226,-16298,150,184,-8,23,-34,-31,-167,-7
,340,2018/03/15 17:59:22.91,-319,2213,-16222,58,87,108,142,-29,-34,-72,-125
,341,2018/03/15 17:59:22.93,-219,2180,-16238,-33,-6,151,183,-27,-32,19,-167
,342,2018/03/15 17:59:22.95,-256,2208,-16238,-8,26,44,73,-34,-29,-9,-58
,343,2018/03/15 17:59:22.97,-257,2228,-16248,100,136,-39,-10,-36,-29,-118,24
,344,2018/03/15 17:59:22.99,-247,2231,-16306,140,173,6,40,-33,-34,-156,-23
,345,2018/03/15 17:59:23.01,-307,2209,-16281,37,64,118,152,-27,-34,-50,-135
,346,2018/03/15 17:59:23.03,-238,2240,-16230,-47,-21,129,160,-26,-31,34,-144
,347,2018/03/15 17:59:23.05,-307,2256,-16262,11,46,23,53,-35,-30,-28,-38
,348,2018/03/15 17:59:23.07,-320,2291,-16237,126,166,-44,-13,-40,-31,-146,28
,349,2018/03/15 17:59:23.09,-356,2296,-16311,128,160,33,65,-32,-32,-144,-49
,350,2018/03/15 17:59:23.11,-283,2254,-16239,30,57,147,182,-27,-35,-43,-164
,351,2018/03/15 17:59:23.13,-239,2284,-16235,-29,-3,134,162,-26,-28,16,-148
,352,2018/03/15 17:59:23.15,-361,2209,-16253,42,72,9,34,-30,-25,-57,-21
,353,2018/03/15 17:59:23.17,-286,2201,-16267,134,170,-41,-10,-36,-31,-152,25
,354,2018/03/15 17:59:23.19,-261,2159,-16221,120,153,52,87,-33,-35,-136,-69
,355,2018/03/15 17:59:23.21,-272,2232,-16284,1,28,136,173,-27,-37,-14,-154
,356,2018/03/15 17:59:23.23,-307,2251,-16321,-44,-14,107,136,-30,-29,29,-121
,357,2018/03/15 17:59:23.25,-328,2245,-16319,66,99,2,28,-33,-26,-82,-15
,358,2018/03/15 17:59:23.27,-329,2261,-16280,147,181,-37,-7,-34,-30,-164,22
,359,2018/03/15 17:59:23.29,-234,2293,-16218,99,129,64,100,-30,-36,-114,-82
,360,2018/03/15 17:59:23.31,-316,2225,-16254,-22,7,136,174,-29,-38,7,-155
,361,2018/03/15 17:59:23.33,-319,2220,-16299,-38,-8,85,110,-30,-25,23,-97
,362,2018/03/15 17:59:23.35,-357,2281,-16283,84,110,-25,-2,-26,-23,-97,13
,363,2018/03/15 17:59:23.37,-291,2277,-16258,144,176,-39,-12,-32,-27,-160,25
,364,2018/03/15 17:59:23.39,-281,2275,-16272,76,101,81,113,-25,-32,-88,-97
,365,2018/03/15 17:59:23.41,-302,2231,-16250,-34,-6,144,176,-28,-32,20,-160
,366,2018/03/15 17:59:23.43,-294,2225,-16265,-24,2,56,80,-26,-24,11,-68
,367,2018/03/15 17:59:23.45,-279,2247,-16208,88,116,-40,-21,-28,-19,-102,30
,368,2018/03/15 17:59:23.47,-263,2202,-16255,136,163,-21,4,-27,-25,-149,8
,369,2018/03/15 17:59:23.49,-393,2174,-16264,52,76,103,133,-24,-30,-64,-118
,370,2018/03/15 17:59:23.51,-219,2294,-16272,-39,-16,139,168,-23,-29,27,-153
,371,2018/03/15 17:59:23.53,-422,2214,-16254,-10,18,42,66,-28,-24,-4,-54
,372,2018/03/15 17:59:23.55,-328,2229,-16278,107,138,-45,-23,-31,-22,-122,34
,373,2018/03/15 17:59:23.57,-327,2222,-16232,133,161,-7,21,-28,-28,-147,-7
,374,2018/03/15 17:59:23.59,-304,2203,-16212,26,50,112,143,-24,-31,-38,-127
,375,2018/03/15 17:59:23.61,-306,2228,-16241,-52,-27,122,152,-25,-30,39,-137
,376,2018/03/15 17:59:23.63,-329,2161,-16292,4,32,20,40,-28,-20,-18,-30
,377,2018/03/15 17:59:23.65,-243,2223,-16281,121,148,-48,-26,-27,-22,-134,37
,378,2018/03/15 17:59:23.67,-358,2148,-16309,127,152,19,45,-25,-26,-139,-32
,379,2018/03/15 17:59:23.69,-284,2243,-16271,7,28,124,154,-21,-30,-17,-139
,380,2018/03/15 17:59:23.71,-279,2237,-16264,-51,-25,119,147,-26,-28,38,-133
,381,2018/03/15 17:59:23.73,-257,2182,-16238,33,62,6,27,-29,-21,-47,-16
,382,2018/03/15 17:59:23.75,-294,2219,-16221,130,160,-48,-25,-30,-23,-145,36
,383,2018/03/15 17:59:23.77,-349,2251,-16277,102,130,37,68,-28,-31,-116,-52
,384,2018/03/15 17:59:23.79,-318,2187,-16251,-21,5,130,159,-26,-29,8,-144
,385,2018/03/15 17:59:23.81,-320,2251,-16267,-55,-32,85,112,-23,-27,43,-98
,386,2018/03/15 17:59:23.83,-356,2241,-16217,39,70,-24,-1,-31,-23,-54,12
,387,2018/03/15 17:59:23.85,-355,2239,-16249,131,156,-49,-26,-25,-23,-143,37
,388,2018/03/15 17:59:23.87,-352,2224,-16251,87,114,57,88,-27,-31,-100,-72
,389,2018/03/15 17:59:23.89,-316,2249,-16276,-26,-2,141,171,-24,-30,14,-156
,390,2018/03/15 17:59:23.91,-367,2261,-16214,-33,-5,90,118,-28,-28,19,-104
,391,2018/03/15 17:59:23.93,-335,2267,-16254,83,114,-23,0,-31,-23,-98,11
,392,2018/03/15 17:59:23.95,-314,2236,-16266,140,168,-36,-10,-28,-26,-154,23
,393,2018/03/15 17:59:23.97,-279,2245,-16270,66,94,85,120,-28,-35,-80,-102
,394,2018/03/15 17:59:23.99,-350,2185,-16248,-25,0,153,183,-25,-30,12,-168
,395,2018/03/15 17:59:24.01,-436,2137,-16222,-18,7,65,87,-25,-22,5,-76
,396,2018/03/15 17:59:24.03,-290,2168,-16221,105,132,-19,1,-27,-20,-118,9
,397,2018/03/15 17:59:24.05,-319,2232,-16252,166,191,7,28,-25,-21,-178,-17
,398,2018/03/15 17:59:24.07,-305,2300,-16318,66,84,112,135,-18,-23,-75,-123
,399,2018/03/15 17:59:24.09,-332,2217,-16299,-38,-21,138,162,-17,-24,29,-150
,400,2018/03/15 17:59:24.11,-310,2292,-16281,-7,15,43,60,-22,-17,-4,-51
,401,2018/03/15 17:59:24.13,-273,2259,-16182,115,140,-45,-26,-25,-19,-127,35
,402,2018/03/15 17:59:24.15,-170,2237,-16260,132,155,3,27,-23,-24,-143,-15
,403,2018/03/15 17:59:24.17,-283,2234,-16289,43,59,125,150,-16,-25,-51,-137
,404,2018/03/15 17:59:24.19,-266,2207,-16332,-40,-20,123,149,-20,-26,30,-136
,405,2018/03/15 17:59:24.21,-229,2206,-16268,12,42,18,45,-30,-27,-27,-31
,406,2018/03/15 17:59:24.23,-254,2208,-16294,124,162,-44,-17,-38,-27,-143,30
,407,2018/03/15 17:59:24.25,-186,2132,-16252,131,161,27,58,-30,-31,-146,-42
,408,2018/03/15 17:59:24.27,-322,2183,-16242,14,42,134,169,-28,-35,-28,-151
,409,2018/03/15 17:59:24.29,-264,2228,-16225,-44,-15,119,152,-29,-33,29,-135
,410,2018/03/15 17:59:24.31,-256,2146,-16271,32,67,-2,26,-35,-28,-49,-12
,411,2018/03/15 17:59:24.33,-300,2149,-16268,131,166,-48,-21,-35,-27,-148,34
,412,2018/03/15 17:59:24.35,-207,2229,-16246,108,138,42,71,-30,-29,-123,-56
,413,2018/03/15 17:59:24.37,-262,2233,-16276,-7,14,138,169,-21,-31,-3,-153
,414,2018/03/15 17:59:24.39,-289,2183,-16297,-43,-16,107,135,-27,-28,29,-121
,415,2018/03/15 17:59:24.41,-301,2222,-16257,62,96,-8,18,-34,-26,-79,-5
,416,2018/03/15 17:59:24.43,-222,2248,-16199,143,177,-40,-11,-34,-29,-160,25
,417,2018/03/15 17:59:24.45,-242,2243,-16215,92,121,66,98,-29,-32,-106,-82
,418,2018/03/15 17:59:24.47,-313,2240,-16240,-20,4,144,173,-24,-29,8,-158
,419,2018/03/15 17:59:24.49,-271,2289,-16268,-34,-10,84,108,-24,-24,22,-96
,420,2018/03/15 17:59:24.51,-256,2248,-16254,82,110,-21,0,-28,-21,-96,10
,421,2018/03/15 17:59:24.53,-326,2244,-16269,150,178,-25,0,-28,-25,-164,12
,422,2018/03/15 17:59:24.55,-322,2265,-16211,74,99,90,121,-25,-31,-86,-105
,423,2018/03/15 17:59:24.57,-306,2271,-16230,-30,-8,150,177,-22,-27,19,-163
,424,2018/03/15 17:59:24.59,-261,2286,-16261,-26,1,60,85,-27,-25,12,-72
,425,2018/03/15 17:59:24.61,-237,2267,-16277,86,118,-37,-10,-32,-27,-102,23
,426,2018/03/15 17:59:24.63,-264,2254,-16218,134,168,-25,8,-34,-33,-151,8
,427,2018/03/15 17:59:24.65,-287,2301,-16195,44,71,98,132,-27,-34,-57,-115
,428,2018/03/15 17:59:24.67,-304,2317,-16240,-45,-21,136,165,-24,-29,33,-150
,429,2018/03/15 17:59:24.69,-318,2313,-16301,-12,17,43,66,-29,-23,-2,-54
,430,2018/03/15 17:59:24.71,-287,2322,-16266,104,138,-48,-22,-34,-26,-121,35
,431,2018/03/15 17:59:24.73,-269,2263,-16260,130,161,-2,25,-31,-27,-145,-11
,432,2018/03/15 17:59:24.75,-280,2308,-16253,22,45,108,140,-23,-32,-33,-124
,433,2018/03/15 17:59:24.77,-261,2287,-16219,-54,-28,125,155,-26,-30,41,-140
,434,2018/03/15 17:59:24.79,-272,2224,-16149,14,45,20,46,-31,-26,-29,-33
,435,2018/03/15 17:59:24.81,-286,2244,-16270,118,154,-56,-25,-36,-31,-136,40
,436,2018/03/15 17:59:24.83,-261,2279,-16258,118,151,19,52,-33,-33,-134,-35
,437,2018/03/15 17:59:24.85,-286,2234,-16362,1,27,117,153,-26,-36,-14,-135
,438,2018/03/15 17:59:24.87,-182,2266,-16303,-55,-26,114,143,-29,-29,40,-128
,439,2018/03/15 17:59:24.89,-324,2261,-16203,33,67,-4,24,-34,-28,-50,-10
,440,2018/03/15 17:59:24.91,-310,2226,-16152,127,162,-52,-23,-35,-29,-144,37
,441,2018/03/15 17:59:24.93,-204,2185,-16206,106,137,41,78,-31,-37,-121,-59
,442,2018/03/15 17:59:24.95,-199,2261,-16287,-16,14,127,164,-30,-37,1,-145
,443,2018/03/15 17:59:24.97,-294,2252,-16313,-49,-17,100,133,-32,-33,33,-116
,444,2018/03/15 17:59:24.99,-212,2268,-16270,72,107,-10,16,-35,-26,-89,-3
,445,2018/03/15 17:59:25.01,-244,2226,-16258,144,181,-43,-11,-37,-32,-162,27
,446,2018/03/15 17:59:25.03,-315,2177,-16298,96,129,74,112,-33,-38,-112,-93
,447,2018/03/15 17:59:25.05,-222,2214,-16233,-7,23,157,196,-30,-39,-8,-176
,448,2018/03/15 17:59:25.07,-272,2312,-16303,-19,14,91,119,-33,-28,2,-105
,449,2018/03/15 17:59:25.09,-250,2207,-16202,84,119,-25,0,-35,-25,-101,12
,450,2018/03/15 17:59:25.11,-296,2282,-16260,150,181,-16,10,-31,-26,-165,3
,451,2018/03/15 17:59:25.13,-172,2250,-16268,85,108,106,136,-23,-30,-96,-121
,452,2018/03/15 17:59:25.15,-325,2208,-16316,-17,6,152,183,-23,-31,5,-167
,453,2018/03/15 17:59:25.17,-319,2251,-16270,-18,11,60,86,-29,-26,3,-73
,454,2018/03/15 17:59:25.19,-216,2290,-16206,102,136,-28,-1,-34,-27,-119,14
,455,2018/03/15 17:59:25.21,-246,2242,-16173,148,183,-4,30,-35,-34,-165,-13
,456,2018/03/15 17:59:25.23,-316,2267,-16224,61,91,117,155,-30,-38,-76,-136
,457,2018/03/15 17:59:25.25,-294,2268,-16256,-34,-4,145,180,-30,-35,19,-162
,458,2018/03/15 17:59:25.27,-237,2302,-16254,10,44,56,85,-34,-29,-27,-70
,459,2018/03/15 17:59:25.29,-301,2278,-16251,127,165,-37,-8,-38,-29,-146,22
,460,2018/03/15 17:59:25.31,-229,2220,-16248,136,169,16,46,-33,-30,-152,-31
,461,2018/03/15 17:59:25.33,-265,2217,-16232,42,68,132,167,-26,-35,-55,-149
,462,2018/03/15 17:59:25.35,-268,2185,-16271,-43,-16,124,153,-27,-29,29,-138
,463,2018/03/15 17:59:25.37,-275,2236,-16294,7,40,7,36,-33,-29,-23,-21
,464,2018/03/15 17:59:25.39,-242,2252,-16242,117,155,-41,-9,-38,-32,-136,25
,465,2018/03/15 17:59:25.41,-266,2253,-16233,122,156,34,71,-34,-37,-139,-52
,466,2018/03/15 17:59:25.43,-283,2278,-16246,10,38,138,177,-28,-39,-24,-157
,467,2018/03/15 17:59:25.45,-324,2293,-16275,-44,-9,112,150,-35,-38,26,-131
,468,2018/03/15 17:59:25.47,-309,2302,-16305,42,83,8,40,-41,-32,-62,-24
,469,2018/03/15 17:59:25.49,-294,2294,-16285,136,179,-38,-3,-43,-35,-157,20
,470,2018/03/15 17:59:25.51,-284,2333,-16264,112,148,55,94,-36,-39,-130,-74
,471,2018/03/15 17:59:25.53,-229,2273,-16271,-3,29,145,184,-32,-39,-13,-164
,472,2018/03/15 17:59:25.55,-299,2253,-16181,-35,0,104,141,-35,-37,17,-122
,473,2018/03/15 17:59:25.57,-263,2187,-16244,68,108,-4,27,-40,-31,-88,-11
,474,2018/03/15 17:59:25.59,-323,2218,-16162,157,195,-24,11,-38,-35,-176,6
,475,2018/03/15 17:59:25.61,-356,2253,-16312,96,132,69,110,-36,-41,-114,-89
,476,2018/03/15 17:59:25.63,-298,2227,-16311,-27,2,137,170,-29,-33,12,-153
,477,2018/03/15 17:59:25.65,-255,2230,-16256,-40,-8,69,102,-32,-33,24,-85
,478,2018/03/15 17:59:25.67,-218,2217,-16258,69,108,-36,-7,-39,-29,-88,21
,479,2018/03/15 17:59:25.69,-191,2236,-16169,136,170,-33,-2,-34,-31,-153,17
,480,2018/03/15 17:59:25.71,-274,2267,-16240,64,94,89,128,-30,-39,-79,-108
,481,2018/03/15 17:59:25.73,-218,2266,-16290,-30,2,148,185,-32,-37,14,-166
,482,2018/03/15 17:59:25.75,-260,2265,-16323,-14,18,60,88,-32,-28,-2,-74
,483,2018/03/15 17:59:25.77,-253,2246,-16295,99,135,-33,-6,-36,-27,-117,19
,484,2018/03/15 17:59:25.79,-188,2243,-16259,148,180,-4,28,-32,-32,-164,-12
,485,2018/03/15 17:59:25.81,-306,2263,-16251,67,96,121,158,-29,-37,-81,-139
,486,2018/03/15 17:59:25.83,-277,2298,-16255,-24,2,142,170,-26,-28,11,-156
,487,2018/03/15 17:59:25.85,-259,2269,-16238,3,38,35,67,-35,-32,-20,-51
,488,2018/03/15 17:59:25.87,-358,2187,-16313,114,156,-43,-10,-42,-33,-135,26
,489,2018/03/15 17:59:25.89,-213,2254,-16189,137,175,8,47,-38,-39,-156,-27
,490,2018/03/15 17:59:25.91,-289,2243,-16302,39,71,130,168,-32,-38,-55,-149
,491,2018/03/15 17:59:25.93,-303,2230,-16317,-40,-10,131,163,-30,-32,25,-147
,492,2018/03/15 17:59:25.95,-277,2246,-16302,24,59,27,56,-35,-29,-41,-41
,493,2018/03/15 17:59:25.97,-326,2253,-16245,138,177,-34,-4,-39,-30,-157,19
,494,2018/03/15 17:59:25.99,-347,2227,-16264,136,168,45,82,-32,-37,-152,-63
,495,2018/03/15 17:59:26.01,-304,2230,-16224,29,59,150,190,-30,-40,-44,-170
,496,2018/03/15 17:59:26.03,-248,2234,-16262,-30,1,128,161,-31,-33,14,-144
,497,2018/03/15 17:59:26.05,-282,2234,-16313,49,87,7,39,-38,-32,-68,-23
,498,2018/03/15 17:59:26.07,-236,2226,-16274,144,184,-39,-7,-40,-32,-164,23
,499,2018/03/15 17:59:26.09,-177,2245,-16276,114,145,64,100,-31,-36,-129,-82
,500,2018/03/15 17:59:26.11,-292,2228,-16215,8,36,154,189,-28,-35,-22,-171
,501,2018/03/15 17:59:26.13,-279,2237,-16246,-31,-2,107,138,-29,-31,16,-122
,502,2018/03/15 17:59:26.15,-239,2203,-16298,65,99,-14,14,-34,-28,-82,0
,503,2018/03/15 17:59:26.17,-285,2222,-16268,140,180,-37,-2,-40,-35,-160,19
,504,2018/03/15 17:59:26.19,-268,2278,-16268,90,124,73,112,-34,-39,-107,-92
,505,2018/03/15 17:59:26.21,-186,2254,-16262,-23,6,144,180,-29,-36,8,-162
,506,2018/03/15 17:59:26.23,-327,2164,-16218,-38,-8,74,103,-30,-29,23,-88
,507,2018/03/15 17:59:26.25,-334,2254,-16269,71,104,-33,-1,-33,-32,-87,17
,508,2018/03/15 17:59:26.27,-266,2237,-16286,137,178,-34,3,-41,-37,-157,15
,509,2018/03/15 17:59:26.29,-236,2240,-16264,65,95,81,115,-30,-34,-80,-98
,510,2018/03/15 17:59:26.31,-334,2249,-16251,-45,-19,127,161,-26,-34,32,-144
,511,2018/03/15 17:59:26.33,-348,2264,-16290,-32,4,47,79,-36,-32,14,-63
,512,2018/03/15 17:59:26.35,-262,2201,-16272,90,131,-44,-9,-41,-35,-110,26
,513,2018/03/15 17:59:26.37,-252,2130,-16185,132,174,-17,22,-42,-39,-153,-2
,514,2018/03/15 17:59:26.39,-342,2159,-16245,37,69,99,140,-32,-41,-53,-119
,515,2018/03/15 17:59:26.41,-266,2245,-16253,-41,-7,145,187,-34,-42,24,-166
,516,2018/03/15 17:59:26.43,-212,2244,-16304,10,53,50,88,-43,-38,-31,-69
,517,2018/03/15 17:59:26.45,-300,2251,-16281,143,193,-13,27,-50,-40,-168,-7
,518,2018/03/15 17:59:26.47,-206,2269,-16257,162,204,30,70,-42,-40,-183,-50
,519,2018/03/15 17:59:26.49,-258,2294,-16254,42,74,138,177,-32,-39,-58,-157
,520,2018/03/15 17:59:26.51,-314,2216,-16275,-30,0,142,172,-30,-30,15,-157
,521,2018/03/15 17:59:26.53,-219,2219,-16251,31,61,24,48,-30,-24,-46,-36
,522,2018/03/15 17:59:26.55,-259,2251,-16264,130,166,-48,-18,-36,-30,-148,33
,523,2018/03/15 17:59:26.57,-260,2199,-16297,118,153,28,64,-35,-36,-135,-46
,524,2018/03/15 17:59:26.59,-295,2244,-16276,11,41,143,185,-30,-42,-26,-164
,525,2018/03/15 17:59:26.61,-237,2208,-16250,-32,4,128,162,-36,-34,14,-145
,526,2018/03/15 17:59:26.63,-201,2260,-16259,57,94,-5,23,-37,-28,-75,-9
,527,2018/03/15 17:59:26.65,-244,2209,-16193,118,155,-71,-45,-37,-26,-136,58
,528,2018/03/15 17:59:26.67,-297,2155,-16263,80,112,32,68,-32,-36,-96,-50
,529,2018/03/15 17:59:26.69,-257,2192,-16237,-19,11,134,173,-30,-39,4,-153
,530,2018/03/15 17:59:26.71,-280,2216,-16289,-40,-6,91,124,-34,-33,23,-107
,531,2018/03/15 17:59:26.73,-268,2226,-16299,63,106,-14,24,-43,-38,-84,-5
,532,2018/03/15 17:59:26.75,-249,2231,-16262,151,196,-27,13,-45,-40,-173,7
,533,2018/03/15 17:59:26.77,-349,2207,-16277,90,128,68,112,-38,-44,-109,-90
,534,2018/03/15 17:59:26.79,-322,2306,-16229,-31,3,129,167,-34,-38,14,-148
,535,2018/03/15 17:59:26.81,-319,2199,-16203,-40,-8,71,102,-32,-31,24,-86
,536,2018/03/15 17:59:26.83,-274,2202,-16205,74,117,-33,2,-43,-35,-95,15
,537,2018/03/15 17:59:26.85,-255,2228,-16274,144,186,-21,15,-42,-36,-165,3
,538,2018/03/15 17:59:26.87,-281,2267,-16312,68,100,88,128,-32,-40,-84,-108
,539,2018/03/15 17:59:26.89,-238,2185,-16273,-35,-2,144,183,-33,-39,18,-163
,540,2018/03/15 17:59:26.91,-256,2181,-16248,-14,20,60,90,-34,-30,-3,-75
,541,2018/03/15 17:59:26.93,-236,2154,-16269,103,142,-37,-5,-39,-32,-122,21
,542,2018/03/15 17:59:26.95,-210,2184,-16296,138,174,-12,21,-36,-33,-156,-4
,543,2018/03/15 17:59:26.97,-233,2214,-16291,50,78,120,160,-28,-40,-64,-140
,544,2018/03/15 17:59:26.99,-263,2217,-16270,-30,2,140,178,-32,-38,14,-159
,545,2018/03/15 17:59:27.01,-255,2256,-16271,-6,31,29,61,-37,-32,-12,-45
,546,2018/03/15 17:59:27.03,-300,2220,-16240,108,145,-42,-9,-37,-33,-126,25
,547,2018/03/15 17:59:27.05,-300,2212,-16299,127,164,4,40,-37,-36,-145,-22
,548,2018/03/15 17:59:27.07,-260,2222,-16310,21,44,120,156,-23,-36,-32,-138
,549,2018/03/15 17:59:27.09,-327,2220,-16276,-45,-16,120,152,-29,-32,30,-136
,550,2018/03/15 17:59:27.11,-246,2231,-16234,17,50,15,41,-33,-26,-33,-28
,551,2018/03/15 17:59:27.13,-244,2234,-16222,128,164,-43,-13,-36,-30,-146,28
,552,2018/03/15 17:59:27.15,-255,2216,-16263,131,165,48,84,-34,-36,-148,-66
,553,2018/03/15 17:59:27.17,-326,2214,-16302,23,51,136,174,-28,-38,-37,-155
,554,2018/03/15 17:59:27.19,-309,2170,-16243,-48,-15,114,147,-33,-33,31,-130
,555,2018/03/15 17:59:27.21,-310,2143,-16218,45,79,4,31,-34,-27,-62,-17
,556,2018/03/15 17:59:27.23,-334,2224,-16296,139,175,-46,-12,-36,-34,-157,29
,557,2018/03/15 17:59:27.25,-235,2253,-16270,102,139,46,89,-37,-43,-120,-67
,558,2018/03/15 17:59:27.27,-264,2204,-16343,-14,18,134,173,-32,-39,-2,-153
,559,2018/03/15 17:59:27.29,-380,2218,-16272,-43,-10,97,130,-33,-33,26,-113
,560,2018/03/15 17:59:27.31,-264,2241,-16187,62,99,-20,9,-37,-29,-80,5
,561,2018/03/15 17:59:27.33,-197,2165,-16224,137,172,-39,-9,-35,-30,-154,24
,562,2018/03/15 17:59:27.35,-316,2184,-16267,86,115,76,113,-29,-37,-100,-94
,563,2018/03/15 17:59:27.37,-292,2217,-16289,-18,10,148,181,-28,-33,4,-164
,564,2018/03/15 17:59:27.39,-307,2199,-16326,-30,-1,78,105,-29,-27,15,-91
,565,2018/03/15 17:59:27.41,-242,2167,-16286,85,122,-25,6,-37,-31,-103,9
,566,2018/03/15 17:59:27.43,-204,2174,-16259,148,183,-19,10,-35,-29,-165,4
,567,2018/03/15 17:59:27.45,-262,2200,-16265,83,112,94,128,-29,-34,-97,-111
,568,2018/03/15 17:59:27.47,-268,2214,-16219,-39,-12,127,152,-27,-25,25,-139
,569,2018/03/15 17:59:27.49,-269,2157,-16249,-28,1,52,79,-29,-27,13,-65
,570,2018/03/15 17:59:27.51,-250,2148,-16332,87,123,-49,-20,-36,-29,-105,34
,571,2018/03/15 17:59:27.53,-240,2173,-16319,126,164,-16,22,-38,-38,-145,-3
,572,2018/03/15 17:59:27.55,-195,2179,-16309,40,76,107,150,-36,-43,-58,-128
,573,2018/03/15 17:59:27.57,-237,2193,-16275,-41,-7,134,173,-34,-39,24,-153
,574,2018/03/15 17:59:27.59,-299,2201,-16190,-6,31,27,58,-37,-31,-12,-42
,575,2018/03/15 17:59:27.61,-317,2249,-16259,120,154,-30,-6,-34,-24,-137,18
,576,2018/03/15 17:59:27.63,-241,2171,-16214,140,166,5,29,-26,-24,-153,-17
,577,2018/03/15 17:59:27.65,-278,2189,-16246,13,33,108,134,-20,-26,-23,-121
,578,2018/03/15 17:59:27.67,-242,2203,-16277,-60,-37,112,143,-23,-31,48,-127
,579,2018/03/15 17:59:27.69,-283,2189,-16280,8,44,9,40,-36,-31,-26,-24
,580,2018/03/15 17:59:27.71,-272,2187,-16259,121,159,-50,-19,-38,-31,-140,34
,581,2018/03/15 17:59:27.73,-295,2151,-16261,121,155,35,73,-34,-38,-138,-54
,582,2018/03/15 17:59:27.75,-230,2214,-16280,11,42,130,171,-31,-41,-26,-150
,583,2018/03/15 17:59:27.77,-261,2241,-16242,-51,-18,108,142,-33,-34,34,-125
,584,2018/03/15 17:59:27.79,-278,2184,-16300,37,73,-1,28,-36,-29,-55,-13
,585,2018/03/15 17:59:27.81,-242,2171,-16276,145,181,-33,-4,-36,-29,-163,18
,586,2018/03/15 17:59:27.83,-265,2206,-16286,116,147,61,98,-31,-37,-131,-79
,587,2018/03/15 17:59:27.85,-248,2208,-16234,0,30,166,205,-30,-39,-15,-185
,588,2018/03/15 17:59:27.87,-284,2215,-16246,-23,5,110,138,-28,-28,9,-124
,589,2018/03/15 17:59:27.89,-225,2199,-16194,75,102,-3,22,-27,-25,-88,-9
,590,2018/03/15 17:59:27.91,-258,2243,-16304,162,195,-27,2,-33,-29,-178,12
,591,2018/03/15 17:59:27.93,-235,2278,-16292,96,124,82,117,-28,-35,-110,-99
,592,2018/03/15 17:59:27.95,-237,2245,-16259,-16,10,148,180,-26,-32,3,-164
,593,2018/03/15 17:59:27.97,-244,2215,-16231,-28,0,78,107,-28,-29,14,-92
,594,2018/03/15 17:59:27.99,-236,2265,-16281,88,123,-24,5,-35,-29,-105,9
,595,2018/03/15 17:59:28.01,-350,2193,-16247,150,186,-20,12,-36,-32,-168,4
,596,2018/03/15 17:59:28.03,-188,2145,-16215,68,96,94,131,-28,-37,-82,-112
,597,2018/03/15 17:59:28.05,-207,2174,-16282,-33,-2,146,182,-31,-36,17,-164
,598,2018/03/15 17:59:28.07,-222,2338,-16281,-13,19,56,86,-32,-30,-3,-71
,599,2018/03/15 17:59:28.09,-260,2298,-16301,104,141,-32,-3,-37,-29,-122,17
,600,2018/03/15 17:59:28.11,-262,2254,-16230,155,191,5,34,-36,-29,-173,-19
,601,2018/03/15 17:59:28.13,-263,2282,-16228,54,77,130,161,-23,-31,-65,-145
,602,2018/03/15 17:59:28.15,-235,2266,-16233,-10,16,170,202,-26,-32,-3,-186
,603,2018/03/15 17:59:28.17,-328,2256,-16352,13,43,30,57,-30,-27,-28,-43
,604,2018/03/15 17:59:28.19,-239,2220,-16273,106,142,-55,-23,-36,-32,-124,39
,605,2018/03/15 17:59:28.21,-217,2270,-16249,126,161,7,38,-35,-31,-143,-22
,606,2018/03/15 17:59:28.23,-206,2252,-16277,24,49,129,164,-25,-35,-36,-146
,607,2018/03/15 17:59:28.25,-296,2268,-16275,-39,-8,128,165,-31,-37,23,-146
,608,2018/03/15 17:59:28.27,-244,2260,-16249,27,66,16,46,-39,-30,-46,-31
,609,2018/03/15 17:59:28.29,-252,2255,-16226,132,173,-40,-11,-41,-29,-152,25
,610,2018/03/15 17:59:28.31,-245,2210,-16232,127,161,40,75,-34,-35,-144,-57
,611,2018/03/15 17:59:28.33,-198,2221,-16207,12,42,134,171,-30,-37,-27,-152
,612,2018/03/15 17:59:28.35,-234,2284,-16299,-42,-13,121,150,-29,-29,27,-135
,613,2018/03/15 17:59:28.37,-305,2261,-16285,49,81,1,26,-32,-25,-65,-13
,614,2018/03/15 17:59:28.39,-344,2233,-16268,142,174,-32,-5,-32,-27,-158,18
,615,2018/03/15 17:59:28.41,-230,2264,-16195,121,150,68,100,-29,-32,-135,-84
,616,2018/03/15 17:59:28.43,-282,2241,-16219,2,28,153,190,-26,-37,-15,-171
,617,2018/03/15 17:59:28.45,-250,2248,-16233,-29,2,106,136,-31,-30,13,-121
,618,2018/03/15 17:59:28.47,-332,2234,-16237,77,111,-6,21,-34,-27,-94,-7
,619,2018/03/15 17:59:28.49,-279,2294,-16251,150,185,-27,3,-35,-30,-167,12
,620,2018/03/15 17:59:28.51,-332,2219,-16261,97,125,86,118,-28,-32,-111,-102
,621,2018/03/15 17:59:28.53,-223,2250,-16272,-13,11,150,182,-24,-32,1,-166
,622,2018/03/15 17:59:28.55,-205,2228,-16320,-25,3,83,109,-28,-26,11,-96
,623,2018/03/15 17:59:28.57,-243,2163,-16264,93,125,-21,6,-32,-27,-109,7
,624,2018/03/15 17:59:28.59,-165,2196,-16292,148,183,-23,7,-35,-30,-165,8
,625,2018/03/15 17:59:28.61,-302,2225,-16297,64,92,91,127,-28,-36,-78,-109
,626,2018/03/15 17:59:28.63,-241,2226,-16279,-37,-6,139,176,-31,-37,21,-157
,627,2018/03/15 17:59:28.65,-290,2267,-16286,-11,22,74,102,-33,-28,-5,-88
,628,2018/03/15 17:59:28.67,-222,2243,-16293,124,158,-20,6,-34,-26,-141,7
,629,2018/03/15 17:59:28.69,-285,2247,-16305,137,170,-21,13,-33,-34,-153,4
,630,2018/03/15 17:59:28.71,-252,2275,-16256,35,62,98,136,-27,-38,-48,-117
,631,2018/03/15 17:59:28.73,-283,2289,-16186,-49,-20,124,158,-29,-34,34,-141
,632,2018/03/15 17:59:28.75,-183,2272,-16176,-3,33,36,67,-36,-31,-15,-51
,633,2018/03/15 17:59:28.77,-290,2230,-16240,123,161,-42,-12,-38,-30,-142,27
,634,2018/03/15 17:59:28.79,-274,2252,-16280,134,167,18,50,-33,-32,-150,-34
,635,2018/03/15 17:59:28.81,-233,2230,-16278,34,60,135,171,-26,-36,-47,-153
,636,2018/03/15 17:59:28.83,-288,2257,-16243,-35,-7,134,164,-28,-30,21,-149
,637,2018/03/15 17:59:28.85,-299,2270,-16246,27,57,17,43,-30,-26,-42,-30
,638,2018/03/15 17:59:28.87,-245,2251,-16219,128,162,-48,-21,-34,-27,-145,34
,639,2018/03/15 17:59:28.89,-306,2230,-16245,120,149,32,60,-29,-28,-134,-46
,640,2018/03/15 17:59:28.91,-267,2336,-16278,6,27,137,166,-21,-29,-16,-151
,641,2018/03/15 17:59:28.93,-211,2317,-16231,-41,-16,117,147,-25,-30,28,-132
,642,2018/03/15 17:59:28.95,-280,2323,-16299,47,84,4,34,-37,-30,-65,-19
,643,2018/03/15 17:59:28.97,-232,2300,-16279,152,185,-31,-5,-33,-26,-168,18
,644,2018/03/15 17:59:28.99,-194,2213,-16300,113,142,63,96,-29,-33,-127,-79
,645,2018/03/15 17:59:29.01,-299,2254,-16243,-2,23,146,179,-25,-33,-10,-162
,646,2018/03/15 17:59:29.03,-185,2251,-16239,-36,-8,102,131,-28,-29,22,-116
,647,2018/03/15 17:59:29.05,-259,2264,-16281,70,102,-15,8,-32,-23,-86,3
,648,2018/03/15 17:59:29.07,-316,2250,-16263,142,172,-37,-11,-30,-26,-157,24
,649,2018/03/15 17:59:29.09,-192,2243,-16184,91,119,79,109,-28,-30,-105,-94
,650,2018/03/15 17:59:29.11,-214,2194,-16286,-18,7,155,188,-25,-33,5,-171
,651,2018/03/15 17:59:29.13,-310,2162,-16323,-24,7,77,108,-31,-31,8,-92
,652,2018/03/15 17:59:29.15,-253,2205,-16390,75,110,-34,-5,-35,-29,-92,19
,653,2018/03/15 17:59:29.17,-234,2221,-16198,138,173,-27,3,-35,-30,-155,12
,654,2018/03/15 17:59:29.19,-194,2197,-16205,61,90,92,129,-29,-37,-75,-110
,655,2018/03/15 17:59:29.21,-266,2178,-16201,-34,-5,145,178,-29,-33,19,-161
,656,2018/03/15 17:59:29.23,-224,2192,-16280,-16,14,54,81,-30,-27,1,-67
,657,2018/03/15 17:59:29.25,-268,2203,-16282,108,143,-31,-4,-35,-27,-125,17
,658,2018/03/15 17:59:29.27,-238,2213,-16298,149,181,1,30,-32,-29,-165,-15
,659,2018/03/15 17:59:29.29,-201,2185,-16295,53,81,129,165,-28,-36,-67,-147
,660,2018/03/15 17:59:29.31,-171,2165,-16305,-20,5,154,182,-25,-28,7,-168
,661,2018/03/15 17:59:29.33,-242,2190,-16302,9,39,30,59,-30,-29,-24,-44
,662,2018/03/15 17:59:29.35,-224,2256,-16244,107,146,-50,-20,-39,-30,-126,35
,663,2018/03/15 17:59:29.37,-188,2221,-16284,133,166,14,46,-33,-32,-149,-30
,664,2018/03/15 17:59:29.39,-176,2174,-16306,24,50,122,155,-26,-33,-37,-138
,665,2018/03/15 17:59:29.41,-217,2207,-16260,-45,-18,132,163,-27,-31,31,-147
,666,2018/03/15 17:59:29.43,-244,2236,-16297,29,61,22,48,-32,-26,-45,-35
,667,2018/03/15 17:59:29.45,-300,2212,-16250,133,166,-44,-19,-33,-25,-149,31
,668,2018/03/15 17:59:29.47,-213,2259,-16260,123,150,35,67,-27,-32,-136,-51
,669,2018/03/15 17:59:29.49,-246,2261,-16277,8,35,133,176,-27,-43,-21,-154
,670,2018/03/15 17:59:29.51,-198,2187,-16265,-42,-12,121,151,-30,-30,27,-136
,671,2018/03/15 17:59:29.53,-318,2206,-16236,53,84,-2,25,-31,-27,-68,-11
,672,2018/03/15 17:59:29.55,-293,2159,-16192,135,168,-43,-15,-33,-28,-151,29
,673,2018/03/15 17:59:29.57,-259,2191,-16217,113,144,63,97,-31,-34,-128,-80
,674,2018/03/15 17:59:29.59,-285,2245,-16236,0,27,149,181,-27,-32,-13,-165
,675,2018/03/15 17:59:29.61,-260,2310,-16316,-38,-11,96,124,-27,-28,24,-110
,676,2018/03/15 17:59:29.63,-371,2227,-16320,60,92,-22,3,-32,-25,-76,9
,677,2018/03/15 17:59:29.65,-282,2191,-16268,141,174,-37,-8,-33,-29,-157,22
,678,2018/03/15 17:59:29.67,-249,2254,-16179,85,114,71,106,-29,-35,-99,-88
,679,2018/03/15 17:59:29.69,-291,2288,-16229,-24,3,146,181,-27,-35,10,-163
,680,2018/03/15 17:59:29.71,-304,2283,-16287,-22,7,88,116,-29,-28,7,-102
,681,2018/03/15 17:59:29.73,-269,2229,-16214,96,130,-21,7,-34,-28,-113,7
,682,2018/03/15 17:59:29.75,-219,2188,-16311,148,181,-20,8,-33,-28,-164,6
,683,2018/03/15 17:59:29.77,-200,2210,-16279,73,98,98,131,-25,-33,-85,-114
,684,2018/03/15 17:59:29.79,-213,2252,-16262,-30,-1,150,186,-29,-36,15,-168
,685,2018/03/15 17:59:29.81,-279,2235,-16211,-9,21,60,86,-30,-26,-6,-73
,686,2018/03/15 17:59:29.83,-219,2168,-16231,98,132,-46,-18,-34,-28,-115,32
,687,2018/03/15 17:59:29.85,-246,2170,-16234,132,168,-12,19,-36,-31,-150,-3
,688,2018/03/15 17:59:29.87,-223,2180,-16314,45,70,115,148,-25,-33,-57,-131
,689,2018/03/15 17:59:29.89,-189,2197,-16271,-40,-12,136,169,-28,-33,26,-152
,690,2018/03/15 17:59:29.91,-309,2206,-16318,0,38,40,68,-38,-28,-19,-54
,691,2018/03/15 17:59:29.93,-228,2230,-16272,120,153,-34,-10,-33,-24,-136,22
,692,2018/03/15 17:59:29.95,-245,2186,-16246,142,174,24,56,-32,-32,-158,-40
,693,2018/03/15 17:59:29.97,-280,2200,-16237,33,58,126,162,-25,-36,-45,-144
,694,2018/03/15 17:59:29.99,-217,2179,-16217,-50,-20,113,145,-30,-32,35,-129
,695,2018/03/15 17:59:30.01,-265,2161,-16282,20,56,23,52,-36,-29,-38,-37
,696,2018/03/15 17:59:30.03,-231,2200,-16264,136,169,-43,-18,-33,-25,-152,30
,697,2018/03/15 17:59:30.05,-236,2198,-16258,127,155,42,72,-28,-30,-141,-57
,698,2018/03/15 17:59:30.07,-175,2194,-16237,19,41,144,174,-22,-30,-30,-159
,699,2018/03/15 17:59:30.09,-199,2149,-16279,-40,-15,118,147,-25,-29,27,-132
,700,2018/03/15 17:59:30.11,-180,2169,-16295,47,78,1,25,-31,-24,-62,-13
,701,2018/03/15 17:59:30.13,-237,2188,-16257,135,168,-47,-20,-33,-27,-151,33
,702,2018/03/15 17:59:30.15,-309,2209,-16294,104,131,52,85,-27,-33,-117,-68
,703,2018/03/15 17:59:30.17,-193,2220,-16261,-8,17,147,179,-25,-32,-4,-163
,704,2018/03/15 17:59:30.19,-172,2199,-16254,-35,-8,98,125,-27,-27,21,-111
,705,2018/03/15 17:59:30.21,-191,2238,-16259,60,93,-22,2,-33,-24,-76,10
,706,2018/03/15 17:59:30.23,-253,2220,-16307,135,165,-42,-17,-30,-25,-150,29
,707,2018/03/15 17:59:30.25,-237,2192,-16250,82,106,67,96,-24,-29,-94,-81
,708,2018/03/15 17:59:30.27,-266,2254,-16252,-29,-7,140,168,-22,-28,18,-154
,709,2018/03/15 17:59:30.29,-368,2205,-16239,-37,-14,68,89,-23,-21,25,-78
,710,2018/03/15 17:59:30.31,-183,2225,-16263,77,108,-37,-6,-31,-31,-92,21
,711,2018/03/15 17:59:30.33,-285,2148,-16252,146,179,-27,2,-33,-29,-162,12
,712,2018/03/15 17:59:30.35,-282,2180,-16223,65,89,85,114,-24,-29,-77,-99
,713,2018/03/15 17:59:30.37,-253,2161,-16227,-36,-13,141,170,-23,-29,24,-155
,714,2018/03/15 17:59:30.39,-182,2250,-16265,-16,10,56,77,-26,-21,3,-66
,715,2018/03/15 17:59:30.41,-258,2303,-16293,96,126,-41,-17,-30,-24,-111,29
,716,2018/03/15 17:59:30.43,-277,2246,-16286,142,171,-8,18,-29,-26,-156,-5
,717,2018/03/15 17:59:30.45,-293,2268,-16235,44,69,112,144,-25,-32,-56,-128
,718,2018/03/15 17:59:30.47,-232,2237,-16198,-35,-10,141,170,-25,-29,22,-155
,719,2018/03/15 17:59:30.49,-288,2217,-16229,-5,24,28,56,-29,-28,-9,-42
,720,2018/03/15 17:59:30.51,-165,2203,-16263,117,154,-42,-13,-37,-29,-135,27
,721,2018/03/15 17:59:30.53,-272,2187,-16233,130,164,6,37,-34,-31,-147,-21
,722,2018/03/15 17:59:30.55,-274,2186,-16251,25,51,120,154,-26,-34,-38,-137
,723,2018/03/15 17:59:30.57,-248,2235,-16260,-48,-19,127,161,-29,-34,33,-144
,724,2018/03/15 17:59:30.59,-291,2233,-16266,19,54,13,40,-35,-27,-36,-26
,725,2018/03/15 17:59:30.61,-254,2223,-16342,126,161,-50,-22,-35,-28,-143,36
,726,2018/03/15 17:59:30.63,-257,2183,-16224,119,148,36,68,-29,-32,-133,-52
,727,2018/03/15 17:59:30.65,-191,2172,-16224,16,42,141,174,-26,-33,-29,-157
,728,2018/03/15 17:59:30.67,-252,2195,-16279,-43,-17,114,143,-26,-29,30,-128
,729,2018/03/15 17:59:30.69,-263,2206,-16236,44,75,4,26,-31,-22,-59,-15
,730,2018/03/15 17:59:30.71,-246,2166,-16300,142,173,-36,-9,-31,-27,-157,22
,731,2018/03/15 17:59:30.73,-259,2193,-16292,114,152,60,98,-38,-38,-133,-79
,732,2018/03/15 17:59:30.75,-217,2217,-16241,-6,28,151,192,-34,-41,-11,-171
,733,2018/03/15 17:59:30.77,-248,2232,-16189,-36,1,101,138,-37,-37,17,-119
,734,2018/03/15 17:59:30.79,-273,2211,-16231,66,106,-10,20,-40,-30,-86,-5
,735,2018/03/15 17:59:30.81,-335,2241,-16279,150,186,-31,0,-36,-31,-168,15
,736,2018/03/15 17:59:30.83,-240,2202,-16251,92,121,75,109,-29,-34,-106,-92
,737,2018/03/15 17:59:30.85,-323,2230,-16284,-20,4,158,187,-24,-29,8,-172
,738,2018/03/15 17:59:30.87,-263,2192,-16238,-11,14,94,122,-25,-28,-1,-108
,739,2018/03/15 17:59:30.89,-246,2167,-16312,86,121,-36,-9,-35,-27,-103,22
,740,2018/03/15 17:59:30.91,-233,2213,-16253,132,166,-30,-1,-34,-29,-149,15
,741,2018/03/15 17:59:30.93,-219,2167,-16283,66,94,88,120,-28,-32,-80,-104
,742,2018/03/15 17:59:30.95,-268,2187,-16245,-41,-16,136,167,-25,-31,28,-151
,743,2018/03/15 17:59:30.97,-231,2261,-16279,-12,17,71,99,-29,-28,-2,-85
,744,2018/03/15 17:59:30.99,-293,2191,-16248,114,148,-29,-4,-34,-25,-131,16
,745,2018/03/15 17:59:31.01,-329,2187,-16253,145,177,-3,25,-32,-28,-161,-11
,746,2018/03/15 17:59:31.03,-291,2195,-16232,55,81,119,152,-26,-33,-68,-135
,747,2018/03/15 17:59:31.05,-285,2240,-16277,-34,-8,144,175,-26,-31,21,-159
,748,2018/03/15 17:59:31.07,-222,2212,-16242,7,37,45,70,-30,-25,-22,-57
,749,2018/03/15 17:59:31.09,-325,2254,-16240,128,160,-36,-11,-32,-25,-144,23
,750,2018/03/15 17:59:31.11,-286,2276,-16237,141,169,13,42,-28,-29,-155,-27
,751,2018/03/15 17:59:31.13,-271,2187,-16290,32,57,128,168,-25,-40,-44,-148
,752,2018/03/15 17:59:31.15,-190,2175,-16246,-38,-11,130,159,-27,-29,24,-144
,753,2018/03/15 17:59:31.17,-251,2184,-16252,24,50,20,40,-26,-20,-37,-30
,754,2018/03/15 17:59:31.19,-253,2149,-16203,136,166,-50,-27,-30,-23,-151,38
,755,2018/03/15 17:59:31.21,-287,2158,-16214,117,146,29,61,-29,-32,-131,-45
,756,2018/03/15 17:59:31.23,-223,2269,-16339,12,37,136,168,-25,-32,-24,-152
,757,2018/03/15 17:59:31.25,-231,2284,-16327,-44,-17,115,144,-27,-29,30,-129
,758,2018/03/15 17:59:31.27,-313,2291,-16289,45,75,3,26,-30,-23,-60,-14
,759,2018/03/15 17:59:31.29,-254,2223,-16239,138,169,-45,-21,-31,-24,-153,33
,760,2018/03/15 17:59:31.31,-187,2214,-16194,107,132,54,83,-25,-29,-119,-68
,761,2018/03/15 17:59:31.33,-248,2118,-16268,-10,15,136,167,-25,-31,-2,-151
,762,2018/03/15 17:59:31.35,-232,2141,-16261,-44,-18,98,125,-26,-27,31,-111
,763,2018/03/15 17:59:31.37,-208,2205,-16332,64,96,-14,12,-32,-26,-80,1
,764,2018/03/15 17:59:31.39,-240,2236,-16294,145,179,-36,-8,-34,-28,-162,22
,765,2018/03/15 17:59:31.41,-253,2228,-16276,84,112,67,100,-28,-33,-98,-83
,766,2018/03/15 17:59:31.43,-213,2233,-16247,-25,2,142,174,-27,-32,11,-158
,767,2018/03/15 17:59:31.45,-236,2195,-16255,-30,-4,84,107,-26,-23,17,-95
,768,2018/03/15 17:59:31.47,-263,2128,-16279,86,118,-26,-4,-32,-22,-102,15
,769,2018/03/15 17:59:31.49,-194,2226,-16252,145,172,-14,9,-27,-23,-158,2
,770,2018/03/15 17:59:31.51,-221,2248,-16287,88,108,103,131,-20,-28,-98,-117
,771,2018/03/15 17:59:31.53,-253,2219,-16328,-40,-15,123,157,-25,-34,27,-140
,772,2018/03/15 17:59:31.55,-180,2241,-16255,-46,-10,40,70,-36,-30,28,-55
,773,2018/03/15 17:59:31.57,-259,2284,-16203,89,125,-36,-9,-36,-27,-107,22
,774,2018/03/15 17:59:31.59,-248,2256,-16264,136,171,-15,17,-35,-32,-153,-1
,775,2018/03/15 17:59:31.61,-209,2255,-16213,39,64,106,140,-25,-34,-51,-123
,776,2018/03/15 17:59:31.63,-241,2228,-16267,-38,-11,144,176,-27,-32,24,-160
,777,2018/03/15 17:59:31.65,-150,2211,-16256,5,37,44,73,-32,-29,-21,-58
,778,2018/03/15 17:59:31.67,-164,2205,-16305,125,162,-35,-7,-37,-28,-143,21
,779,2018/03/15 17:59:31.69,-144,2218,-16282,141,173,16,47,-32,-31,-157,-31
,780,2018/03/15 17:59:31.71,-234,2233,-16263,30,58,127,164,-28,-37,-44,-145
,781,2018/03/15 17:59:31.73,-205,2226,-16274,-40,-8,134,169,-32,-35,24,-151
,782,2018/03/15 17:59:31.75,-250,2265,-16302,20,55,17,46,-35,-29,-37,-31
,783,2018/03/15 17:59:31.77,-222,2218,-16268,132,169,-41,-10,-37,-31,-150,25
,784,2018/03/15 17:59:31.79,-273,2239,-16281,128,163,34,70,-35,-36,-145,-52
,785,2018/03/15 17:59:31.81,-250,2215,-16296,13,41,137,174,-28,-37,-27,-155
,786,2018/03/15 17:59:31.83,-256,2203,-16244,-40,-10,119,151,-30,-32,25,-135
,787,2018/03/15 17:59:31.85,-244,2291,-16250,39,73,-6,21,-34,-27,-56,-7
,788,2018/03/15 17:59:31.87,-184,2304,-16253,128,164,-45,-14,-36,-31,-146,29
,789,2018/03/15 17:59:31.89,-198,2310,-16266,114,146,57,91,-32,-34,-130,-74
,790,2018/03/15 17:59:31.91,-235,2297,-16242,-6,19,139,174,-25,-35,-6,-156
,791,2018/03/15 17:59:31.93,-263,2271,-16189,-36,-7,99,131,-29,-32,21,-115
,792,2018/03/15 17:59:31.95,-220,2236,-16223,58,95,-30,2,-37,-32,-76,14
,793,2018/03/15 17:59:31.97,-248,2151,-16258,139,175,-36,-7,-36,-29,-157,21
,794,2018/03/15 17:59:31.99,-251,2228,-16223,99,126,71,102,-27,-31,-112,-86
,795,2018/03/15 17:59:32.01,-200,2264,-16330,-26,0,141,177,-26,-36,13,-159
,796,2018/03/15 17:59:32.03,-181,2247,-16272,-25,8,86,117,-33,-31,8,-101
,797,2018/03/15 17:59:32.05,-237,2230,-16225,79,113,-31,-1,-34,-30,-96,16
,798,2018/03/15 17:59:32.07,-204,2256,-16244,140,179,-27,6,-39,-33,-159,10
,799,2018/03/15 17:59:32.09,-189,2298,-16223,70,98,90,125,-28,-35,-84,-107
,800,2018/03/15 17:59:32.11,-199,2359,-16267,-36,-7,141,177,-29,-36,21,-159
,801,2018/03/15 17:59:32.13,-152,2284,-16312,-17,15,58,88,-32,-30,1,-73
,802,2018/03/15 17:59:32.15,-254,2265,-16280,95,133,-42,-11,-38,-31,-114,26
,803,2018/03/15 17:59:32.17,-148,2311,-16245,143,178,1,33,-35,-32,-160,-17
,804,2018/03/15 17:59:32.19,-182,2292,-16262,61,90,112,149,-29,-37,-75,-130
,805,2018/03/15 17:59:32.21,-186,2254,-16263,-43,-13,131,166,-30,-35,28,-148
,806,2018/03/15 17:59:32.23,-178,2246,-16258,-12,21,36,62,-33,-26,-4,-49
,807,2018/03/15 17:59:32.25,-194,2181,-16234,128,162,-26,-1,-34,-25,-145,13
,808,2018/03/15 17:59:32.27,-233,2224,-16197,148,178,6,35,-30,-29,-163,-20
,809,2018/03/15 17:59:32.29,-212,2237,-16259,16,40,106,139,-24,-33,-28,-122
,810,2018/03/15 17:59:32.31,-179,2274,-16310,-55,-28,122,154,-27,-32,41,-138
,811,2018/03/15 17:59:32.33,-233,2300,-16342,19,52,30,54,-33,-24,-35,-42
,812,2018/03/15 17:59:32.35,-184,2283,-16258,134,166,-43,-18,-32,-25,-150,30
,813,2018/03/15 17:59:32.37,-282,2248,-16208,116,148,35,69,-32,-34,-132,-52
,814,2018/03/15 17:59:32.39,-200,2279,-16189,15,44,142,181,-29,-39,-29,-161
,815,2018/03/15 17:59:32.41,-251,2308,-16212,-41,-12,123,152,-29,-29,26,-137
,816,2018/03/15 17:59:32.43,-233,2260,-16286,51,81,13,40,-30,-27,-66,-26
,817,2018/03/15 17:59:32.45,-196,2253,-16232,144,178,-42,-11,-34,-31,-161,26
,818,2018/03/15 17:59:32.47,-205,2293,-16252,106,139,52,90,-33,-38,-122,-71
,819,2018/03/15 17:59:32.49,-213,2263,-16245,-6,24,135,171,-30,-36,-9,-153
,820,2018/03/15 17:59:32.51,-173,2232,-16256,-46,-16,98,128,-30,-30,31,-113
,821,2018/03/15 17:59:32.53,-209,2175,-16279,64,98,-9,18,-34,-27,-81,-4
,822,2018/03/15 17:59:32.55,-145,2206,-16265,144,179,-35,-4,-35,-31,-161,19
,823,2018/03/15 17:59:32.57,-218,2190,-16254,94,125,74,111,-31,-37,-109,-92
,824,2018/03/15 17:59:32.59,-194,2204,-16256,-17,12,144,179,-29,-35,2,-161
,825,2018/03/15 17:59:32.61,-226,2219,-16284,-34,-2,79,110,-32,-31,18,-94
,826,2018/03/15 17:59:32.63,-242,2287,-16276,80,116,-31,-1,-36,-30,-98,16
,827,2018/03/15 17:59:32.65,-233,2215,-16283,140,173,-30,-2,-33,-28,-156,16
,828,2018/03/15 17:59:32.67,-232,2313,-16289,68,93,89,123,-25,-34,-80,-106
,829,2018/03/15 17:59:32.69,-221,2267,-16230,-32,-4,142,176,-28,-34,18,-159
,830,2018/03/15 17:59:32.71,-215,2227,-16181,-22,9,56,83,-31,-27,6,-69
,831,2018/03/15 17:59:32.73,-200,2181,-16234,103,137,-28,-3,-34,-25,-120,15
,832,2018/03/15 17:59:32.75,-215,2183,-16215,153,179,-12,17,-26,-29,-166,-2
,833,2018/03/15 17:59:32.77,-247,2251,-16281,51,77,100,131,-26,-31,-64,-115
,834,2018/03/15 17:59:32.79,-269,2283,-16278,-34,-13,144,169,-21,-25,23,-156
,835,2018/03/15 17:59:32.81,-222,2278,-16314,4,35,47,71,-31,-24,-19,-59
,836,2018/03/15 17:59:32.83,-244,2251,-16230,125,157,-36,-12,-32,-24,-141,24
,837,2018/03/15 17:59:32.85,-197,2228,-16219,145,172,17,42,-27,-25,-158,-29
,838,2018/03/15 17:59:32.87,-196,2237,-16244,36,58,129,161,-22,-32,-47,-145
,839,2018/03/15 17:59:32.89,-172,2188,-16268,-42,-18,125,152,-24,-27,30,-138
,840,2018/03/15 17:59:32.91,-140,2159,-16272,12,41,14,37,-29,-23,-26,-25
,841,2018/03/15 17:59:32.93,-109,2186,-16294,128,157,-42,-21,-29,-21,-142,31
,842,2018/03/15 17:59:32.95,-217,2169,-16328,124,150,33,61,-26,-28,-137,-47
,843,2018/03/15 17:59:32.97,-156,2218,-16324,24,44,159,184,-20,-25,-34,-171
,844,2018/03/15 17:59:32.99,-202,2215,-16218,-26,-8,123,144,-18,-21,17,-133
,845,2018/03/15 17:59:33.01,-219,2270,-16290,34,61,-8,14,-27,-22,-47,-3
,846,2018/03/15 17:59:33.03,-153,2224,-16260,128,157,-54,-27,-29,-27,-142,40
,847,2018/03/15 17:59:33.05,-133,2225,-16204,97,128,35,67,-31,-32,-112,-51
,848,2018/03/15 17:59:33.07,-156,2320,-16222,-19,5,139,170,-24,-31,7,-154
,849,2018/03/15 17:59:33.09,-241,2223,-16358,-37,-11,104,132,-26,-28,24,-118
,850,2018/03/15 17:59:33.11,-261,2234,-16304,64,97,-9,17,-33,-26,-80,-4
,851,2018/03/15 17:59:33.13,-193,2212,-16301,156,189,-24,3,-33,-27,-172,10
,852,2018/03/15 17:59:33.15,-244,2168,-16175,96,123,75,108,-27,-33,-109,-91
,853,2018/03/15 17:59:33.17,-155,2166,-16269,-24,5,147,184,-29,-37,9,-165
,854,2018/03/15 17:59:33.19,-170,2183,-16258,-38,-8,83,110,-30,-27,23,-96
,855,2018/03/15 17:59:33.21,-69,2180,-16296,76,109,-23,4,-33,-27,-92,9
,856,2018/03/15 17:59:33.23,-164,2236,-16260,151,186,-13,17,-35,-30,-168,-2
,857,2018/03/15 17:59:33.25,-141,2156,-16269,83,109,99,133,-26,-34,-96,-116
,858,2018/03/15 17:59:33.27,-204,2154,-16266,-25,1,146,180,-26,-34,12,-163
,859,2018/03/15 17:59:33.29,-169,2184,-16230,-18,11,61,89,-29,-28,3,-75
,860,2018/03/15 17:59:33.31,-166,2168,-16205,95,129,-37,-10,-34,-27,-112,23
,861,2018/03/15 17:59:33.33,-215,2202,-16264,150,184,-5,23,-34,-28,-167,-9
,862,2018/03/15 17:59:33.35,-209,2236,-16291,49,72,102,135,-23,-33,-60,-118
,863,2018/03/15 17:59:33.37,-252,2206,-16297,-43,-15,139,171,-28,-32,29,-155
,864,2018/03/15 17:59:33.39,-192,2197,-16292,-2,27,37,64,-29,-27,-12,-50
,865,2018/03/15 17:59:33.41,-273,2205,-16295,110,146,-47,-16,-36,-31,-128,31
,866,2018/03/15 17:59:33.43,-237,2280,-16303,133,170,7,44,-37,-37,-151,-25
,867,2018/03/15 17:59:33.45,-174,2237,-16306,34,65,127,167,-31,-40,-49,-147
,868,2018/03/15 17:59:33.47,-202,2198,-16251,-42,-7,131,169,-35,-38,24,-150
,869,2018/03/15 17:59:33.49,-198,2224,-16266,14,51,19,48,-37,-29,-32,-33
,870,2018/03/15 17:59:33.51,-231,2205,-16293,130,167,-44,-13,-37,-31,-148,28
,871,2018/03/15 17:59:33.53,-217,2181,-16160,121,156,28,62,-35,-34,-138,-45
,872,2018/03/15 17:59:33.55,-181,2145,-16196,16,44,136,173,-28,-37,-30,-154
,873,2018/03/15 17:59:33.57,-212,2211,-16250,-30,-1,125,158,-29,-33,15,-141
,874,2018/03/15 17:59:33.59,-244,2265,-16327,47,82,-1,25,-35,-26,-64,-12
,875,2018/03/15 17:59:33.61,-269,2216,-16330,140,176,-44,-14,-36,-30,-158,29
,876,2018/03/15 17:59:33.63,-287,2176,-16252,114,147,49,83,-33,-34,-130,-66
,877,2018/03/15 17:59:33.65,-230,2241,-16177,-5,22,138,173,-27,-35,-8,-155
,878,2018/03/15 17:59:33.67,-212,2238,-16240,-44,-16,99,126,-28,-27,30,-112
,879,2018/03/15 17:59:33.69,-245,2254,-16259,57,91,-21,7,-34,-28,-74,7
,880,2018/03/15 17:59:33.71,-217,2231,-16300,127,161,-52,-22,-34,-30,-144,37
,881,2018/03/15 17:59:33.73,-166,2187,-16282,83,112,69,103,-29,-34,-97,-86
,882,2018/03/15 17:59:33.75,-189,2230,-16283,-16,10,152,185,-26,-33,3,-168
,883,2018/03/15 17:59:33.77,-266,2245,-16295,-26,3,86,114,-29,-28,11,-100
,884,2018/03/15 17:59:33.79,-222,2249,-16251,80,116,-23,5,-36,-28,-98,9
,885,2018/03/15 17:59:33.81,-212,2168,-16249,146,183,-26,5,-37,-31,-164,10
,886,2018/03/15 17:59:33.83,-251,2144,-16251,70,97,84,118,-27,-34,-83,-101
,887,2018/03/15 17:59:33.85,-222,2240,-16271,-35,-9,139,171,-26,-32,22,-155
,888,2018/03/15 17:59:33.87,-206,2232,-16313,-24,5,61,88,-29,-27,9,-74
,889,2018/03/15 17:59:33.89,-166,2224,-16353,100,133,-34,-6,-33,-28,-116,20
,890,2018/03/15 17:59:33.91,-191,2221,-16289,142,177,-16,16,-35,-32,-159,0
,891,2018/03/15 17:59:33.93,-215,2207,-16198,49,79,108,143,-30,-35,-64,-125
,892,2018/03/15 17:59:33.95,-269,2228,-16235,-32,-6,143,174,-26,-31,19,-158
,893,2018/03/15 17:59:33.97,-228,2223,-16237,0,30,54,78,-30,-24,-15,-66
,894,2018/03/15 17:59:33.99,-295,2204,-16246,114,147,-45,-18,-33,-27,-130,31
,895,2018/03/15 17:59:34.01,-183,2253,-16292,116,148,-2,31,-32,-33,-132,-14
,896,2018/03/15 17:59:34.03,-194,2257,-16269,29,59,130,167,-30,-37,-44,-148
,897,2018/03/15 17:59:34.05,-228,2220,-16289,-46,-18,119,149,-28,-30,32,-134
,898,2018/03/15 17:59:34.07,-163,2172,-16251,5,36,19,47,-31,-28,-20,-33
,899,2018/03/15 17:59:34.09,-263,2184,-16221,129,165,-46,-19,-36,-27,-147,32
,900,2018/03/15 17:59:34.11,-212,2196,-16262,118,148,18,50,-30,-32,-133,-34
,901,2018/03/15 17:59:34.13,-230,2170,-16293,10,38,135,169,-28,-34,-24,-152
,902,2018/03/15 17:59:34.15,-122,2219,-16227,-42,-14,120,150,-28,-30,28,-135
,903,2018/03/15 17:59:34.17,-254,2225,-16249,31,67,-4,26,-36,-30,-49,-11
,904,2018/03/15 17:59:34.19,-158,2238,-16304,134,171,-43,-12,-37,-31,-152,27
,905,2018/03/15 17:59:34.21,-199,2187,-16254,111,146,46,81,-35,-35,-128,-63
,906,2018/03/15 17:59:34.23,-239,2250,-16288,-3,22,145,176,-25,-31,-9,-160
,907,2018/03/15 17:59:34.25,-255,2250,-16256,-38,-12,102,129,-26,-27,25,-115
,908,2018/03/15 17:59:34.27,-177,2219,-16255,55,86,-15,8,-31,-23,-70,3
,909,2018/03/15 17:59:34.29,-281,2214,-16293,139,170,-41,-15,-31,-26,-154,28
,910,2018/03/15 17:59:34.31,-224,2248,-16286,87,113,62,93,-26,-31,-100,-77
,911,2018/03/15 17:59:34.33,-216,2158,-16275,-22,2,143,174,-24,-31,10,-158
,912,2018/03/15 17:59:34.35,-306,2108,-16258,-35,-8,82,108,-27,-26,21,-95
,913,2018/03/15 17:59:34.37,-298,2156,-16209,77,109,-27,-1,-32,-26,-93,14
,914,2018/03/15 17:59:34.39,-210,2207,-16301,149,179,-32,-6,-30,-26,-164,19
,915,2018/03/15 17:59:34.41,-145,2253,-16281,72,96,74,103,-24,-29,-84,-88
,916,2018/03/15 17:59:34.43,-170,2250,-16314,-35,-8,139,171,-27,-32,21,-155
,917,2018/03/15 17:59:34.45,-252,2273,-16320,-30,1,58,85,-31,-27,14,-71
,918,2018/03/15 17:59:34.47,-153,2266,-16219,100,135,-31,1,-35,-32,-117,15
,919,2018/03/15 17:59:34.49,-258,2198,-16201,146,179,-10,18,-33,-28,-162,-4
,920,2018/03/15 17:59:34.51,-228,2199,-16274,54,78,96,129,-24,-33,-66,-112
,921,2018/03/15 17:59:34.53,-203,2223,-16232,-48,-24,130,158,-24,-28,36,-144
,922,2018/03/15 17:59:34.55,-246,2185,-16257,-10,18,38,66,-28,-28,-4,-52
,923,2018/03/15 17:59:34.57,-190,2224,-16313,104,135,-53,-33,-31,-20,-119,43
,924,2018/03/15 17:59:34.59,-164,2190,-16249,126,147,-3,18,-21,-21,-136,-7
,925,2018/03/15 17:59:34.61,-216,2188,-16266,26,43,119,140,-17,-21,-34,-129
,926,2018/03/15 17:59:34.63,-283,2207,-16247,-44,-31,129,148,-13,-19,37,-138
,927,2018/03/15 17:59:34.65,-207,2143,-16231,11,33,20,39,-22,-19,-22,-29
,928,2018/03/15 17:59:34.67,-274,2182,-16268,124,153,-48,-24,-29,-24,-138,36
,929,2018/03/15 17:59:34.69,-159,2241,-16296,121,149,25,53,-28,-28,-135,-39
,930,2018/03/15 17:59:34.71,-236,2216,-16295,18,39,133,162,-21,-29,-28,-147
,931,2018/03/15 17:59:34.73,-223,2175,-16309,-47,-22,115,142,-25,-27,34,-128
,932,2018/03/15 17:59:34.75,-188,2181,-16217,29,60,2,27,-31,-25,-44,-14
,933,2018/03/15 17:59:34.77,-157,2166,-16266,133,164,-48,-21,-31,-27,-148,34
,934,2018/03/15 17:59:34.79,-273,2176,-16282,110,140,58,92,-30,-34,-125,-75
,935,2018/03/15 17:59:34.81,-207,2190,-16283,3,31,139,173,-28,-34,-17,-156
,936,2018/03/15 17:59:34.83,-195,2207,-16238,-55,-28,104,136,-27,-32,41,-120
,937,2018/03/15 17:59:34.85,-231,2167,-16244,64,101,-6,28,-37,-34,-82,-11
,938,2018/03/15 17:59:34.87,-187,2189,-16302,149,190,-35,0,-41,-35,-169,17
,939,2018/03/15 17:59:34.89,-266,2195,-16245,92,125,58,95,-33,-37,-108,-76
,940,2018/03/15 17:59:34.91,-163,2202,-16225,-27,1,138,174,-28,-36,13,-156
,941,2018/03/15 17:59:34.93,-169,2131,-16214,-32,-3,90,116,-29,-26,17,-103
,942,2018/03/15 17:59:34.95,-203,2196,-16282,77,111,-27,2,-34,-29,-94,12
,943,2018/03/15 17:59:34.97,-220,2223,-16273,139,178,-33,2,-39,-35,-158,15
,944,2018/03/15 17:59:34.99,-168,2266,-16232,71,104,83,122,-33,-39,-87,-102
,945,2018/03/15 17:59:35.01,-191,2261,-16276,-32,-2,142,178,-30,-36,17,-160
,946,2018/03/15 17:59:35.03,-214,2241,-16240,-22,11,67,98,-33,-31,5,-82
,947,2018/03/15 17:59:35.05,-234,2250,-16247,98,140,-32,2,-42,-34,-119,15
,948,2018/03/15 17:59:35.07,-214,2256,-16255,142,182,-16,20,-40,-36,-162,-2
,949,2018/03/15 17:59:35.09,-235,2266,-16270,54,87,104,146,-33,-42,-70,-125
,950,2018/03/15 17:59:35.11,-309,2216,-16279,-38,-6,136,172,-32,-36,22,-154
,951,2018/03/15 17:59:35.13,-170,2199,-16233,-10,26,46,78,-36,-32,-8,-62
,952,2018/03/15 17:59:35.15,-239,2195,-16239,113,151,-42,-12,-38,-30,-132,27
,953,2018/03/15 17:59:35.17,-190,2197,-16318,131,167,-5,29,-36,-34,-149,-12
,954,2018/03/15 17:59:35.19,-199,2212,-16211,32,62,118,159,-30,-41,-47,-138
,955,2018/03/15 17:59:35.21,-367,2260,-16305,-37,-5,123,158,-32,-35,21,-140
,956,2018/03/15 17:59:35.23,-166,2277,-16278,0,35,11,36,-35,-25,-17,-23
,957,2018/03/15 17:59:35.25,-235,2284,-16255,121,156,-47,-19,-35,-28,-138,33
,958,2018/03/15 17:59:35.27,-243,2293,-16224,128,163,25,61,-35,-36,-145,-43
,959,2018/03/15 17:59:35.29,-255,2293,-16194,24,53,125,162,-29,-37,-38,-143
,960,2018/03/15 17:59:35.31,-197,2274,-16265,-41,-11,124,158,-30,-34,26,-141
,961,2018/03/15 17:59:35.33,-247,2274,-16283,30,69,2,33,-39,-31,-49,-17
,962,2018/03/15 17:59:35.35,-184,2240,-16287,127,166,-54,-22,-39,-32,-146,38
,963,2018/03/15 17:59:35.37,-174,2202,-16241,103,136,34,70,-33,-36,-119,-52
,964,2018/03/15 17:59:35.39,-168,2219,-16263,-4,25,143,179,-29,-36,-10,-161
,965,2018/03/15 17:59:35.41,-161,2213,-16221,-30,-2,122,147,-28,-25,16,-134
,966,2018/03/15 17:59:35.43,-166,2263,-16234,65,98,-4,24,-33,-28,-81,-10
,967,2018/03/15 17:59:35.45,-229,2271,-16266,142,179,-40,-8,-37,-32,-160,24
,968,2018/03/15 17:59:35.47,-249,2188,-16243,92,123,51,86,-31,-35,-107,-68
,969,2018/03/15 17:59:35.49,-208,2178,-16270,-26,1,139,174,-27,-35,12,-156
,970,2018/03/15 17:59:35.51,-176,2186,-16273,-39,-8,83,113,-31,-30,23,-98
,971,2018/03/15 17:59:35.53,-218,2203,-16318,65,102,-29,2,-37,-31,-83,13
,972,2018/03/15 17:59:35.55,-155,2305,-16322,142,181,-29,4,-39,-33,-161,12
,973,2018/03/15 17:59:35.57,-171,2268,-16249,76,106,80,116,-30,-36,-91,-98
,974,2018/03/15 17:59:35.59,-189,2239,-16194,-28,2,148,184,-30,-36,13,-166
,975,2018/03/15 17:59:35.61,-267,2228,-16216,-23,7,77,107,-30,-30,8,-92
,976,2018/03/15 17:59:35.63,-217,2236,-16274,87,125,-42,-13,-38,-29,-106,27
,977,2018/03/15 17:59:35.65,-184,2215,-16225,126,155,-28,2,-29,-30,-140,13
,978,2018/03/15 17:59:35.67,-125,2211,-16262,48,74,100,138,-26,-38,-61,-119
,979,2018/03/15 17:59:35.69,-149,2222,-16217,-33,-3,144,178,-30,-34,18,-161
,980,2018/03/15 17:59:35.71,-240,2253,-16230,-11,21,40,70,-32,-30,-5,-55
,981,2018/03/15 17:59:35.73,-169,2219,-16287,97,136,-49,-17,-39,-32,-116,33
,982,2018/03/15 17:59:35.75,-203,2135,-16233,134,172,-4,32,-38,-36,-153,-14
,983,2018/03/15 17:59:35.77,-141,2179,-16294,37,66,135,168,-29,-33,-51,-151
,984,2018/03/15 17:59:35.79,-175,2207,-16265,-22,0,145,170,-22,-25,11,-157
,985,2018/03/15 17:59:35.81,-263,2230,-16291,6,32,13,36,-26,-23,-19,-24
,986,2018/03/15 17:59:35.83,-243,2255,-16243,98,129,-68,-44,-31,-24,-113,56
,987,2018/03/15 17:59:35.85,-212,2233,-16248,110,138,9,38,-28,-29,-124,-23
,988,2018/03/15 17:59:35.87,-240,2341,-16286,8,32,119,149,-24,-30,-20,-134
,989,2018/03/15 17:59:35.89,-160,2322,-16236,-52,-28,122,152,-24,-30,40,-137
,990,2018/03/15 17:59:35.91,-251,2280,-16188,34,69,12,42,-35,-30,-51,-27
,991,2018/03/15 17:59:35.93,-218,2255,-16174,133,172,-47,-16,-39,-31,-152,31
,992,2018/03/15 17:59:35.95,-258,2238,-16249,114,146,41,76,-32,-35,-130,-58
,993,2018/03/15 17:59:35.97,-258,2161,-16284,0,29,131,169,-29,-38,-14,-150
,994,2018/03/15 17:59:35.99,-165,2198,-16267,-54,-23,97,129,-31,-32,38,-113
,995,2018/03/15 17:59:36.01,-195,2251,-16323,46,83,-10,21,-37,-31,-64,-5
,996,2018/03/15 17:59:36.03,-208,2298,-16282,146,186,-43,-14,-40,-29,-166,28
,997,2018/03/15 17:59:36.05,-141,2201,-16269,98,125,57,85,-27,-28,-111,-71
,998,2018/03/15 17:59:36.07,-227,2214,-16197,-17,12,138,176,-29,-38,2,-157
,999,2018/03/15 17:59:36.09,-211,2210,-16199,-42,-7,82,115,-35,-33,24,-98
,1000,2018/03/15 17:59:36.11,-142,2266,-16209,72,107,-17,10,-35,-27,-89,3
,1001,2018/03/15 17:59:36.13,-287,2238,-16329,144,179,-33,0,-35,-33,-161,16
,1002,2018/03/15 17:59:36.15,-165,2196,-16284,82,115,86,125,-33,-39,-98,-105
,1003,2018/03/15 17:59:36.17,-176,2249,-16263,-22,8,149,187,-30,-38,7,-168
,1004,2018/03/15 17:59:36.19,-190,2198,-16280,-20,13,75,107,-33,-32,3,-91
,1005,2018/03/15 17:59:36.21,-170,2206,-16269,95,134,-30,2,-39,-32,-114,14
,1006,2018/03/15 17:59:36.23,-175,2238,-16306,145,182,-14,17,-37,-31,-163,-1
,1007,2018/03/15 17:59:36.25,-141,2188,-16215,64,92,106,143,-28,-37,-78,-124
,1008,2018/03/15 17:59:36.27,-196,2234,-16189,-31,0,143,178,-31,-35,15,-160
,1009,2018/03/15 17:59:36.29,-188,2212,-16190,-15,19,42,73,-34,-31,-2,-57
,1010,2018/03/15 17:59:36.31,-125,2218,-16276,106,144,-38,-9,-38,-29,-125,23
,1011,2018/03/15 17:59:36.33,-134,2197,-16313,139,175,-2,34,-36,-36,-157,-16
,1012,2018/03/15 17:59:36.35,-189,2203,-16259,40,73,115,155,-33,-40,-56,-135
,1013,2018/03/15 17:59:36.37,-186,2186,-16232,-43,-14,132,162,-29,-30,28,-147
,1014,2018/03/15 17:59:36.39,-197,2234,-16213,5,36,28,55,-31,-27,-20,-41
,1015,2018/03/15 17:59:36.41,-222,2247,-16232,123,157,-45,-19,-34,-26,-140,32
,1016,2018/03/15 17:59:36.43,-121,2237,-16204,125,156,22,56,-31,-34,-140,-39
,1017,2018/03/15 17:59:36.45,-219,2226,-16282,18,46,125,157,-28,-32,-32,-141
,1018,2018/03/15 17:59:36.47,-217,2228,-16309,-55,-35,110,141,-20,-31,45,-125
,1019,2018/03/15 17:59:36.49,-170,2216,-16257,12,49,-5,24,-37,-29,-30,-9
,1020,2018/03/15 17:59:36.51,-197,2205,-16219,122,158,-56,-28,-36,-28,-140,42
,1021,2018/03/15 17:59:36.53,-218,2210,-16272,107,139,30,70,-32,-40,-123,-50
,1022,2018/03/15 17:59:36.55,-265,2264,-16276,-2,32,134,174,-34,-40,-15,-154
,1023,2018/03/15 17:59:36.57,-176,2232,-16259,-40,-8,112,145,-32,-33,24,-128
,1024,2018/03/15 17:59:36.59,-176,2264,-16288,45,84,-11,20,-39,-31,-64,-4
,1025,2018/03/15 17:59:36.61,-252,2263,-16263,135,174,-47,-16,-39,-31,-154,31
,1026,2018/03/15 17:59:36.63,-184,2232,-16231,97,126,59,93,-29,-34,-111,-76
,1027,2018/03/15 17:59:36.65,-219,2275,-16235,-12,15,143,180,-27,-37,-1,-161
,1028,2018/03/15 17:59:36.67,-238,2259,-16286,-39,-8,86,115,-31,-29,23,-100
,1029,2018/03/15 17:59:36.69,-160,2269,-16247,62,97,-26,4,-35,-30,-79,11
,1030,2018/03/15 17:59:36.71,-156,2240,-16207,142,179,-31,0,-37,-31,-160,15
,1031,2018/03/15 17:59:36.73,-173,2203,-16252,83,111,77,110,-28,-33,-97,-93
,1032,2018/03/15 17:59:36.75,-207,2181,-16264,-30,-4,138,172,-26,-34,17,-155
,1033,2018/03/15 17:59:36.77,-211,2178,-16150,-32,0,71,100,-32,-29,16,-85
,1034,2018/03/15 17:59:36.79,-232,2136,-16282,84,119,-37,-9,-35,-28,-101,23
,1035,2018/03/15 17:59:36.81,-130,2279,-16255,138,171,-28,0,-33,-28,-154,14
,1036,2018/03/15 17:59:36.83,-137,2292,-16304,50,76,85,117,-26,-32,-63,-101
,1037,2018/03/15 17:59:36.85,-259,2206,-16242,-38,-10,136,169,-28,-33,24,-152
,1038,2018/03/15 17:59:36.87,-206,2213,-16249,-19,14,39,67,-33,-28,2,-53
,1039,2018/03/15 17:59:36.89,-175,2232,-16219,100,138,-42,-13,-38,-29,-119,27
,1040,2018/03/15 17:59:36.91,-147,2210,-16299,128,164,-7,26,-36,-33,-146,-9
,1041,2018/03/15 17:59:36.93,-209,2234,-16289,41,70,99,136,-29,-37,-55,-117
,1042,2018/03/15 17:59:36.95,-151,2273,-16248,-49,-19,128,161,-30,-33,34,-144
,1043,2018/03/15 17:59:36.97,-209,2195,-16246,-2,32,31,60,-34,-29,-15,-45
,1044,2018/03/15 17:59:36.99,-126,2211,-16251,125,160,-35,-6,-35,-29,-142,20
,1045,2018/03/15 17:59:37.01,-230,2157,-16255,141,174,20,51,-33,-31,-157,-35
,1046,2018/03/15 17:59:37.03,-164,2196,-16251,24,48,127,159,-24,-32,-36,-143
,1047,2018/03/15 17:59:37.05,-123,2172,-16223,-46,-19,122,154,-27,-32,32,-138
,1048,2018/03/15 17:59:37.07,-177,2199,-16262,21,54,12,40,-33,-28,-37,-26
,1049,2018/03/15 17:59:37.09,-160,2201,-16278,132,168,-46,-17,-36,-29,-150,31
,1050,2018/03/15 17:59:37.11,-123,2214,-16301,118,148,32,62,-30,-30,-133,-47
,1051,2018/03/15 17:59:37.13,-186,2228,-16282,-2,22,128,160,-24,-32,-10,-144
,1052,2018/03/15 17:59:37.15,-212,2197,-16277,-46,-19,111,140,-27,-29,32,-125
,1053,2018/03/15 17:59:37.17,-199,2196,-16246,47,81,-4,24,-34,-28,-64,-10
,1054,2018/03/15 17:59:37.19,-177,2258,-16212,133,169,-45,-15,-36,-30,-151,30
,1055,2018/03/15 17:59:37.21,-214,2195,-16206,104,135,59,94,-31,-35,-119,-76
,1056,2018/03/15 17:59:37.23,-156,2167,-16272,-13,15,136,171,-28,-35,-1,-153
,1057,2018/03/15 17:59:37.25,-119,2193,-16285,-44,-14,96,126,-30,-30,29,-111
,1058,2018/03/15 17:59:37.27,-164,2195,-16263,58,89,-28,-3,-31,-25,-73,15
,1059,2018/03/15 17:59:37.29,-177,2233,-16249,130,157,-42,-12,-27,-30,-143,27
,1060,2018/03/15 17:59:37.31,-185,2224,-16280,82,108,74,107,-26,-33,-95,-90
,1061,2018/03/15 17:59:37.33,-188,2189,-16274,-20,7,143,178,-27,-35,6,-160
,1062,2018/03/15 17:59:37.35,-204,2167,-16237,-30,-1,73,100,-29,-27,15,-86
,1063,2018/03/15 17:59:37.37,-178,2188,-16236,89,124,-27,2,-35,-29,-106,12
,1064,2018/03/15 17:59:37.39,-229,2232,-16312,148,181,-20,5,-33,-25,-164,7
,1065,2018/03/15 17:59:37.41,-151,2238,-16272,66,85,97,123,-19,-26,-75,-110
,1066,2018/03/15 17:59:37.43,-163,2186,-16267,-35,-13,140,166,-22,-26,24,-153
,1067,2018/03/15 17:59:37.45,-226,2255,-16289,-14,6,61,77,-20,-16,4,-69
,1068,2018/03/15 17:59:37.47,-243,2289,-16278,108,132,-36,-19,-24,-17,-120,27
,1069,2018/03/15 17:59:37.49,-134,2314,-16171,137,157,-7,11,-20,-18,-147,-2
,1070,2018/03/15 17:59:37.51,-235,2222,-16254,48,64,118,143,-16,-25,-56,-130
,1071,2018/03/15 17:59:37.53,-147,2256,-16277,-37,-20,137,158,-17,-21,28,-147
,1072,2018/03/15 17:59:37.55,-197,2250,-16212,3,24,36,55,-21,-19,-13,-45
,1073,2018/03/15 17:59:37.57,-244,2198,-16260,122,149,-41,-20,-27,-21,-135,30
,1074,2018/03/15 17:59:37.59,-236,2192,-16316,134,158,13,40,-24,-27,-146,-26
,1075,2018/03/15 17:59:37.61,-134,2237,-16151,24,48,127,158,-24,-31,-36,-142
,1076,2018/03/15 17:59:37.63,-170,2197,-16313,-44,-20,124,150,-24,-26,32,-137
,1077,2018/03/15 17:59:37.65,-147,2285,-16272,19,49,16,41,-30,-25,-34,-28
,1078,2018/03/15 17:59:37.67,-220,2246,-16287,138,174,-53,-25,-36,-28,-156,39
,1079,2018/03/15 17:59:37.69,-146,2214,-16319,104,134,19,47,-30,-28,-119,-33
,1080,2018/03/15 17:59:37.71,-157,2263,-16184,-1,28,128,163,-29,-35,-13,-145
,1081,2018/03/15 17:59:37.73,-174,2255,-16228,-50,-19,108,139,-31,-31,34,-123
,1082,2018/03/15 17:59:37.75,-194,2216,-16263,41,76,-9,19,-35,-28,-58,-5
,1083,2018/03/15 17:59:37.77,-100,2197,-16246,143,177,-40,-12,-34,-28,-160,26
,1084,2018/03/15 17:59:37.79,-174,2182,-16243,106,135,50,84,-29,-34,-120,-67
,1085,2018/03/15 17:59:37.81,-234,2238,-16237,-13,11,137,165,-24,-28,1,-151
,1086,2018/03/15 17:59:37.83,-196,2211,-16263,-46,-20,89,116,-26,-27,33,-102
,1087,2018/03/15 17:59:37.85,-142,2191,-16236,53,89,-28,3,-36,-31,-71,12
,1088,2018/03/15 17:59:37.87,-175,2210,-16283,134,172,-38,-7,-38,-31,-153,22
,1089,2018/03/15 17:59:37.89,-174,2124,-16192,86,115,68,103,-29,-35,-100,-85
,1090,2018/03/15 17:59:37.91,-143,2152,-16279,-29,-3,142,175,-26,-33,16,-158
,1091,2018/03/15 17:59:37.93,-184,2187,-16272,-29,1,77,106,-30,-29,14,-91
,1092,2018/03/15 17:59:37.95,-131,2187,-16333,78,114,-33,-6,-36,-27,-96,19
,1093,2018/03/15 17:59:37.97,-184,2210,-16307,136,170,-31,-2,-34,-29,-153,16
,1094,2018/03/15 17:59:37.99,-151,2166,-16302,62,88,86,120,-26,-34,-75,-103
,1095,2018/03/15 17:59:38.01,-204,2234,-16269,-41,-13,133,169,-28,-36,27,-151
,1096,2018/03/15 17:59:38.03,-153,2215,-16262,-25,6,49,76,-31,-27,9,-62
,1097,2018/03/15 17:59:38.05,-124,2189,-16253,94,125,-40,-16,-31,-24,-109,28
,1098,2018/03/15 17:59:38.07,-139,2178,-16292,142,174,2,35,-32,-33,-158,-18
,1099,2018/03/15 17:59:38.09,-121,2208,-16215,50,77,110,143,-27,-33,-63,-126
,1100,2018/03/15 17:59:38.11,-178,2205,-16263,-38,-19,139,166,-19,-27,28,-152
,1101,2018/03/15 17:59:38.13,-188,2191,-16258,7,36,47,74,-29,-27,-21,-60
,1102,2018/03/15 17:59:38.15,-154,2178,-16256,120,154,-44,-17,-34,-27,-137,30
,1103,2018/03/15 17:59:38.17,-162,2210,-16300,135,166,14,48,-31,-34,-150,-31
,1104,2018/03/15 17:59:38.19,-193,2224,-16231,33,62,125,162,-29,-37,-47,-143
,1105,2018/03/15 17:59:38.21,-142,2199,-16288,-44,-13,129,164,-31,-35,28,-146
,1106,2018/03/15 17:59:38.23,-117,2211,-16315,19,55,16,45,-36,-29,-37,-30
,1107,2018/03/15 17:59:38.25,-231,2191,-16277,123,159,-49,-20,-36,-29,-141,34
,1108,2018/03/15 17:59:38.27,-180,2266,-16244,121,154,35,73,-33,-38,-137,-54
,1109,2018/03/15 17:59:38.29,-165,2252,-16266,13,44,129,168,-31,-39,-28,-148
,1110,2018/03/15 17:59:38.31,-183,2245,-16274,-52,-19,109,145,-33,-36,35,-127
,1111,2018/03/15 17:59:38.33,-156,2213,-16303,32,72,-8,21,-40,-29,-52,-6
,1112,2018/03/15 17:59:38.35,-132,2269,-16270,132,169,-38,-4,-37,-34,-150,21
,1113,2018/03/15 17:59:38.37,-160,2259,-16278,121,156,52,91,-35,-39,-138,-71
,1114,2018/03/15 17:59:38.39,-104,2214,-16266,-24,11,108,153,-35,-45,6,-130
,1115,2018/03/15 17:59:38.41,-164,2242,-16252,-70,-30,72,113,-40,-41,50,-92
,1116,2018/03/15 17:59:38.43,-218,2225,-16251,42,88,-30,10,-46,-40,-65,10
,1117,2018/03/15 17:59:38.45,-176,2137,-16201,120,170,-61,-18,-50,-43,-145,39
,1118,2018/03/15 17:59:38.47,-218,2144,-16246,67,107,54,103,-40,-49,-87,-78
,1119,2018/03/15 17:59:38.49,-192,2281,-16276,-26,17,131,178,-43,-47,4,-154
,1120,2018/03/15 17:59:38.51,-195,2293,-16286,-45,-5,64,97,-40,-33,25,-80
,1121,2018/03/15 17:59:38.53,-83,2311,-16290,58,102,-49,-12,-44,-37,-80,30
,1122,2018/03/15 17:59:38.55,-124,2228,-16189,111,154,-48,-8,-43,-40,-132,28
,1123,2018/03/15 17:59:38.57,-182,2331,-16188,50,88,73,117,-38,-44,-69,-95
,1124,2018/03/15 17:59:38.59,-182,2217,-16259,-50,-14,128,170,-36,-42,32,-149
,1125,2018/03/15 17:59:38.61,-146,2231,-16276,-30,9,47,81,-39,-34,10,-64
,1126,2018/03/15 17:59:38.63,-123,2262,-16305,79,120,-55,-22,-41,-33,-99,38
,1127,2018/03/15 17:59:38.65,-107,2257,-16272,120,160,-35,2,-40,-37,-140,16
,1128,2018/03/15 17:59:38.67,-184,2215,-16261,26,57,86,125,-31,-39,-41,-105
,1129,2018/03/15 17:59:38.69,-146,2222,-16267,-55,-21,125,164,-34,-39,38,-144
,1130,2018/03/15 17:59:38.71,-108,2280,-16277,-18,21,20,54,-39,-34,-1,-37
,1131,2018/03/15 17:59:38.73,-165,2261,-16236,90,135,-62,-25,-45,-37,-112,43
,1132,2018/03/15 17:59:38.75,-260,2266,-16200,117,157,-3,34,-40,-37,-137,-15
,1133,2018/03/15 17:59:38.77,-182,2313,-16235,23,54,109,149,-31,-40,-38,-129
,1134,2018/03/15 17:59:38.79,-157,2295,-16283,-63,-27,104,146,-36,-42,45,-125
,1135,2018/03/15 17:59:38.81,-171,2297,-16316,-2,42,9,46,-44,-37,-20,-27
,1136,2018/03/15 17:59:38.83,-180,2287,-16295,118,165,-56,-14,-47,-42,-141,35
,1137,2018/03/15 17:59:38.85,-203,2280,-16173,110,151,14,55,-41,-41,-130,-34
,1138,2018/03/15 17:59:38.87,-198,2283,-16242,-1,32,118,162,-33,-44,-15,-140
,1139,2018/03/15 17:59:38.89,-160,2227,-16261,-55,-15,112,157,-40,-45,35,-134
,1140,2018/03/15 17:59:38.91,-247,2334,-16222,32,77,-4,30,-45,-34,-54,-13
,1141,2018/03/15 17:59:38.93,-190,2310,-16214,130,166,-58,-24,-36,-34,-148,41
,1142,2018/03/15 17:59:38.95,-238,2293,-16271,92,129,36,76,-37,-40,-110,-56
,1143,2018/03/15 17:59:38.97,-150,2303,-16299,-16,18,127,169,-34,-42,-1,-148
,1144,2018/03/15 17:59:38.99,-176,2210,-16260,-53,-18,84,116,-35,-32,35,-100
,1145,2018/03/15 17:59:39.01,-118,2256,-16260,39,76,-32,-2,-37,-30,-57,17
,1146,2018/03/15 17:59:39.03,-180,2268,-16217,123,160,-52,-20,-37,-32,-141,36
,1147,2018/03/15 17:59:39.05,-121,2304,-16265,79,109,53,88,-30,-35,-94,-70
,1148,2018/03/15 17:59:39.07,-128,2272,-16255,-35,-7,128,164,-28,-36,21,-146
,1149,2018/03/15 17:59:39.09,-192,2280,-16304,-49,-16,60,91,-33,-31,32,-75
,1150,2018/03/15 17:59:39.11,-159,2269,-16230,53,90,-47,-16,-37,-31,-71,31
,1151,2018/03/15 17:59:39.13,-134,2284,-16247,124,160,-48,-17,-36,-31,-142,32
,1152,2018/03/15 17:59:39.15,-160,2272,-16276,46,73,62,96,-27,-34,-59,-79
,1153,2018/03/15 17:59:39.17,-142,2277,-16268,-52,-23,122,157,-29,-35,37,-139
,1154,2018/03/15 17:59:39.19,-104,2285,-16284,-37,-6,47,74,-31,-27,21,-60
,1155,2018/03/15 17:59:39.21,-157,2275,-16319,82,116,-48,-21,-34,-27,-99,34
,1156,2018/03/15 17:59:39.23,-134,2301,-16240,130,160,-26,4,-30,-30,-145,11
,1157,2018/03/15 17:59:39.25,-137,2298,-16189,36,65,88,125,-29,-37,-50,-106
,1158,2018/03/15 17:59:39.27,-220,2248,-16256,-54,-25,120,151,-29,-31,39,-135
,1159,2018/03/15 17:59:39.29,-194,2199,-16226,-26,8,21,53,-34,-32,9,-37
,1160,2018/03/15 17:59:39.31,-186,2316,-16298,85,132,-70,-37,-47,-33,-108,53
,1161,2018/03/15 17:59:39.33,-214,2309,-16273,104,140,-22,12,-36,-34,-122,5
,1162,2018/03/15 17:59:39.35,-139,2359,-16224,-1,31,88,128,-32,-40,-15,-108
,1163,2018/03/15 17:59:39.37,-224,2285,-16220,-76,-46,103,135,-30,-32,61,-119
,1164,2018/03/15 17:59:39.39,-168,2312,-16189,-3,30,8,37,-33,-29,-13,-22
,1165,2018/03/15 17:59:39.41,-80,2346,-16207,105,142,-68,-37,-37,-31,-123,52
,1166,2018/03/15 17:59:39.43,-122,2300,-16294,97,130,1,38,-33,-37,-113,-19
,1167,2018/03/15 17:59:39.45,-160,2328,-16298,-8,24,110,149,-32,-39,-8,-129
,1168,2018/03/15 17:59:39.47,-158,2319,-16298,-62,-31,100,134,-31,-34,46,-117
,1169,2018/03/15 17:59:39.49,-138,2270,-16241,16,54,-16,15,-38,-31,-35,0
,1170,2018/03/15 17:59:39.51,-212,2259,-16244,110,148,-64,-32,-38,-32,-129,48
,1171,2018/03/15 17:59:39.53,-187,2264,-16212,96,128,39,75,-32,-36,-112,-57
,1172,2018/03/15 17:59:39.55,-209,2309,-16220,-11,18,127,164,-29,-37,-3,-145
,1173,2018/03/15 17:59:39.57,-190,2214,-16227,-53,-21,90,122,-32,-32,37,-106
,1174,2018/03/15 17:59:39.59,-82,2272,-16152,41,76,-27,2,-35,-29,-58,12
,1175,2018/03/15 17:59:39.61,-137,2308,-16272,127,163,-49,-15,-36,-34,-145,32
,1176,2018/03/15 17:59:39.63,-203,2270,-16335,80,115,46,86,-35,-40,-97,-66
,1177,2018/03/15 17:59:39.65,-209,2273,-16322,-40,-9,124,156,-31,-32,24,-140
,1178,2018/03/15 17:59:39.67,-71,2293,-16247,-50,-22,69,96,-28,-27,36,-82
,1179,2018/03/15 17:59:39.69,-230,2267,-16159,66,102,-38,-4,-36,-34,-84,21
,1180,2018/03/15 17:59:39.71,-167,2286,-16237,130,170,-48,-6,-40,-42,-150,27
,1181,2018/03/15 17:59:39.73,-166,2234,-16228,57,91,67,108,-34,-41,-74,-87
,1182,2018/03/15 17:59:39.75,-108,2267,-16266,-37,-6,136,174,-31,-38,21,-155
,1183,2018/03/15 17:59:39.77,-163,2300,-16265,-29,8,52,88,-37,-36,10,-70
,1184,2018/03/15 17:59:39.79,-151,2325,-16249,80,123,-46,-11,-43,-35,-101,28
,1185,2018/03/15 17:59:39.81,-93,2267,-16205,134,174,-22,18,-40,-40,-154,2
,1186,2018/03/15 17:59:39.83,-115,2308,-16260,41,79,82,124,-38,-42,-60,-103
,1187,2018/03/15 17:59:39.85,-80,2241,-16252,-62,-30,110,146,-32,-36,46,-128
,1188,2018/03/15 17:59:39.87,-103,2242,-16243,-36,-1,18,49,-35,-31,18,-33
,1189,2018/03/15 17:59:39.89,-128,2250,-16283,92,131,-53,-24,-39,-29,-111,38
,1190,2018/03/15 17:59:39.91,-188,2321,-16264,126,158,-12,20,-32,-32,-142,-4
,1191,2018/03/15 17:59:39.93,-158,2329,-16303,11,40,91,129,-29,-38,-25,-110
,1192,2018/03/15 17:59:39.95,-149,2318,-16271,-66,-35,111,146,-31,-35,50,-128
,1193,2018/03/15 17:59:39.97,-168,2292,-16273,-6,32,6,40,-38,-34,-13,-23
,1194,2018/03/15 17:59:39.99,-110,2281,-16261,100,142,-69,-35,-42,-34,-121,52
,1195,2018/03/15 17:59:40.01,-111,2323,-16276,104,139,3,39,-35,-36,-121,-21
,1196,2018/03/15 17:59:40.03,-195,2324,-16308,-2,28,112,150,-30,-38,-13,-131
,1197,2018/03/15 17:59:40.05,-194,2321,-16235,-62,-29,100,135,-33,-35,45,-117
,1198,2018/03/15 17:59:40.07,-168,2290,-16247,16,52,-14,17,-36,-31,-34,-1
,1199,2018/03/15 17:59:40.09,-215,2247,-16273,105,144,-68,-38,-39,-30,-124,53
,1200,2018/03/15 17:59:40.11,-184,2205,-16191,91,123,27,61,-32,-34,-107,-44
,1201,2018/03/15 17:59:40.13,-235,2223,-16258,-32,2,106,142,-34,-36,15,-124
,1202,2018/03/15 17:59:40.15,-189,2320,-16265,-72,-42,85,114,-30,-29,57,-99
,1203,2018/03/15 17:59:40.17,-191,2356,-16297,31,67,-32,1,-36,-33,-49,15
,1204,2018/03/15 17:59:40.19,-145,2296,-16289,115,155,-58,-21,-40,-37,-135,39
,1205,2018/03/15 17:59:40.21,-176,2304,-16158,82,118,45,82,-36,-37,-100,-63
,1206,2018/03/15 17:59:40.23,-113,2339,-16225,-33,-1,120,162,-32,-42,17,-141
,1207,2018/03/15 17:59:40.25,-153,2307,-16261,-54,-17,70,105,-37,-35,35,-87
,1208,2018/03/15 17:59:40.27,-143,2256,-16304,57,96,-44,-11,-39,-33,-76,27
,1209,2018/03/15 17:59:40.29,-121,2248,-16281,115,155,-53,-15,-40,-38,-135,34
,1210,2018/03/15 17:59:40.31,-121,2282,-16257,58,92,63,103,-34,-40,-75,-83
,1211,2018/03/15 17:59:40.33,-200,2280,-16258,-51,-15,122,165,-36,-43,33,-143
,1212,2018/03/15 17:59:40.35,-181,2224,-16255,-40,0,48,82,-40,-34,20,-65
,1213,2018/03/15 17:59:40.37,-86,2269,-16315,79,118,-42,-12,-39,-30,-98,27
,1214,2018/03/15 17:59:40.39,-76,2270,-16248,135,170,-22,11,-35,-33,-152,5
,1215,2018/03/15 17:59:40.41,-95,2239,-16249,51,83,97,140,-32,-43,-67,-118
,1216,2018/03/15 17:59:40.43,-158,2199,-16236,-44,-9,128,164,-35,-36,26,-146
,1217,2018/03/15 17:59:40.45,-144,2241,-16330,-26,4,26,51,-30,-25,11,-38
,1218,2018/03/15 17:59:40.47,-183,2253,-16330,92,126,-60,-31,-34,-29,-109,45
,1219,2018/03/15 17:59:40.49,-125,2255,-16323,107,140,-27,5,-33,-32,-123,11
,1220,2018/03/15 17:59:40.51,-157,2245,-16231,17,43,100,135,-26,-35,-30,-117
,1221,2018/03/15 17:59:40.53,-134,2202,-16209,-58,-30,108,148,-28,-40,44,-128
,1222,2018/03/15 17:59:40.55,-119,2265,-16167,-10,25,9,42,-35,-33,-7,-25
,1223,2018/03/15 17:59:40.57,-173,2251,-16213,119,158,-56,-23,-39,-33,-138,39
,1224,2018/03/15 17:59:40.59,-167,2250,-16274,112,145,8,39,-33,-31,-128,-23
,1225,2018/03/15 17:59:40.61,-179,2237,-16252,11,39,118,156,-28,-38,-25,-137
,1226,2018/03/15 17:59:40.63,-107,2246,-16241,-58,-26,105,140,-32,-35,42,-122
,1227,2018/03/15 17:59:40.65,-181,2303,-16246,13,51,-8,24,-38,-32,-32,-8
,1228,2018/03/15 17:59:40.67,-141,2194,-16230,120,160,-56,-23,-40,-33,-140,39
,1229,2018/03/15 17:59:40.69,-89,2279,-16227,96,131,20,57,-35,-37,-113,-38
,1230,2018/03/15 17:59:40.71,-135,2251,-16283,-21,10,114,155,-31,-41,5,-134
,1231,2018/03/15 17:59:40.73,-172,2248,-16267,-64,-27,85,121,-37,-36,45,-103
,1232,2018/03/15 17:59:40.75,-111,2292,-16286,33,73,-26,6,-40,-32,-53,10
,1233,2018/03/15 17:59:40.77,-150,2309,-16328,118,158,-59,-26,-40,-33,-138,42
,1234,2018/03/15 17:59:40.79,-150,2312,-16216,82,114,47,86,-32,-39,-98,-66
,1235,2018/03/15 17:59:40.81,-260,2292,-16249,-31,2,122,161,-33,-39,14,-141
,1236,2018/03/15 17:59:40.83,-207,2297,-16246,-57,-25,64,95,-32,-31,41,-79
,1237,2018/03/15 17:59:40.85,-141,2309,-16232,52,89,-36,-4,-37,-32,-70,20
,1238,2018/03/15 17:59:40.87,-183,2298,-16269,132,172,-39,-5,-40,-34,-152,22
,1239,2018/03/15 17:59:40.89,-193,2295,-16208,66,97,64,101,-31,-37,-81,-82
,1240,2018/03/15 17:59:40.91,-140,2240,-16255,-44,-14,126,157,-30,-31,29,-141
,1241,2018/03/15 17:59:40.93,-218,2271,-16249,-47,-16,40,69,-31,-29,31,-54
,1242,2018/03/15 17:59:40.95,-259,2227,-16210,56,100,-59,-26,-44,-33,-78,42
,1243,2018/03/15 17:59:40.97,-200,2197,-16169,118,155,-27,5,-37,-32,-136,11
,1244,2018/03/15 17:59:40.99,-169,2237,-16234,42,73,83,120,-31,-37,-57,-101
,1245,2018/03/15 17:59:41.01,-138,2305,-16291,-58,-29,119,155,-29,-36,43,-137
,1246,2018/03/15 17:59:41.03,-135,2328,-16346,-29,5,32,61,-34,-29,12,-46
,1247,2018/03/15 17:59:41.05,-150,2248,-16293,91,130,-57,-25,-39,-32,-110,41
,1248,2018/03/15 17:59:41.07,-178,2310,-16217,118,153,-16,17,-35,-33,-135,0
,1249,2018/03/15 17:59:41.09,-84,2280,-16213,20,50,98,136,-30,-38,-35,-117
,1250,2018/03/15 17:59:41.11,-140,2237,-16247,-60,-27,113,150,-33,-37,43,-131
,1251,2018/03/15 17:59:41.13,-99,2189,-16276,-2,33,20,49,-35,-29,-15,-34
,1252,2018/03/15 17:59:41.15,-87,2240,-16275,108,144,-64,-34,-36,-30,-126,49
,1253,2018/03/15 17:59:41.17,-140,2221,-16248,106,139,-1,36,-33,-37,-122,-17
,1254,2018/03/15 17:59:41.19,-107,2222,-16272,1,33,112,150,-32,-38,-17,-131
,1255,2018/03/15 17:59:41.21,-97,2275,-16284,-61,-29,103,138,-32,-35,45,-120
,1256,2018/03/15 17:59:41.23,-140,2244,-16284,12,50,-4,29,-38,-33,-31,-12
,1257,2018/03/15 17:59:41.25,-122,2215,-16212,118,155,-62,-34,-37,-28,-136,48
,1258,2018/03/15 17:59:41.27,-85,2215,-16254,96,127,26,62,-31,-36,-111,-44
,1259,2018/03/15 17:59:41.29,-223,2245,-16263,-10,19,120,156,-29,-36,-4,-138
,1260,2018/03/15 17:59:41.31,-74,2265,-16294,-59,-28,93,126,-31,-33,43,-109
,1261,2018/03/15 17:59:41.33,-163,2244,-16266,41,77,-21,8,-36,-29,-59,6
,1262,2018/03/15 17:59:41.35,-153,2273,-16232,126,161,-67,-33,-35,-34,-143,50
,1263,2018/03/15 17:59:41.37,-118,2269,-16200,70,101,37,73,-31,-36,-85,-55
,1264,2018/03/15 17:59:41.39,-182,2325,-16233,-24,5,129,167,-29,-38,9,-148
,1265,2018/03/15 17:59:41.41,-128,2246,-16234,-54,-21,62,93,-33,-31,37,-77
,1266,2018/03/15 17:59:41.43,-163,2286,-16264,40,76,-50,-20,-36,-30,-58,35
,1267,2018/03/15 17:59:41.45,-141,2306,-16262,116,151,-54,-24,-35,-30,-133,39
,1268,2018/03/15 17:59:41.47,-102,2284,-16305,58,86,56,91,-28,-35,-72,-73
,1269,2018/03/15 17:59:41.49,-221,2243,-16238,-49,-17,122,163,-32,-41,33,-142
,1270,2018/03/15 17:59:41.51,-150,2236,-16281,-46,-9,48,85,-37,-37,27,-66
,1271,2018/03/15 17:59:41.53,-103,2213,-16241,67,111,-54,-17,-44,-37,-89,35
,1272,2018/03/15 17:59:41.55,-120,2217,-16234,117,159,-44,-6,-42,-38,-138,25
,1273,2018/03/15 17:59:41.57,-139,2222,-16287,39,71,105,137,-32,-32,-55,-121
,1274,2018/03/15 17:59:41.59,-43,2297,-16260,-21,1,144,173,-22,-29,10,-158
,1275,2018/03/15 17:59:41.61,-117,2290,-16297,-22,6,29,55,-28,-26,8,-42
,1276,2018/03/15 17:59:41.63,-124,2279,-16261,80,114,-71,-45,-34,-26,-97,58
,1277,2018/03/15 17:59:41.65,-122,2297,-16249,101,129,-34,-8,-28,-26,-115,21
,1278,2018/03/15 17:59:41.67,-135,2268,-16226,9,32,86,117,-23,-31,-20,-101
,1279,2018/03/15 17:59:41.69,-115,2244,-16264,-62,-35,119,153,-27,-34,48,-136
,1280,2018/03/15 17:59:41.71,-172,2288,-16234,-6,31,14,47,-37,-33,-12,-30
,1281,2018/03/15 17:59:41.73,-114,2251,-16312,107,147,-54,-24,-40,-30,-127,39
,1282,2018/03/15 17:59:41.75,-157,2273,-16286,112,147,4,42,-35,-38,-129,-23
,1283,2018/03/15 17:59:41.77,-151,2206,-16285,-1,37,120,162,-38,-42,-18,-141
,1284,2018/03/15 17:59:41.79,-165,2261,-16230,-56,-20,107,147,-36,-40,38,-127
,1285,2018/03/15 17:59:41.81,-115,2237,-16225,0,41,-16,18,-41,-34,-20,-1
,1286,2018/03/15 17:59:41.83,-112,2199,-16192,105,145,-63,-31,-40,-32,-125,47
,1287,2018/03/15 17:59:41.85,-120,2270,-16280,98,128,20,55,-30,-35,-113,-37
,1288,2018/03/15 17:59:41.87,-119,2274,-16338,-20,9,112,147,-29,-35,5,-129
,1289,2018/03/15 17:59:41.89,-162,2268,-16355,-61,-30,95,125,-31,-30,45,-110
,1290,2018/03/15 17:59:41.91,-143,2271,-16313,40,74,-17,11,-34,-28,-57,3
,1291,2018/03/15 17:59:41.93,-116,2325,-16210,120,159,-60,-24,-39,-36,-139,42
,1292,2018/03/15 17:59:41.95,-148,2336,-16235,80,117,41,81,-37,-40,-98,-61
,1293,2018/03/15 17:59:41.97,-81,2273,-16266,-31,2,120,160,-33,-40,14,-140
,1294,2018/03/15 17:59:41.99,-186,2251,-16269,-62,-26,65,99,-36,-34,44,-82
,1295,2018/03/15 17:59:42.01,-135,2280,-16296,47,87,-38,-3,-40,-35,-67,20
,1296,2018/03/15 17:59:42.03,-168,2311,-16294,130,172,-46,-11,-42,-35,-151,28
,1297,2018/03/15 17:59:42.05,-89,2317,-16257,61,94,59,100,-33,-41,-77,-79
,1298,2018/03/15 17:59:42.07,-110,2293,-16251,-42,-8,132,174,-34,-42,25,-153
,1299,2018/03/15 17:59:42.09,-100,2303,-16274,-36,0,56,89,-36,-33,18,-72
,1300,2018/03/15 17:59:42.11,-169,2273,-16263,70,112,-50,-15,-42,-35,-91,32
,1301,2018/03/15 17:59:42.13,-148,2274,-16197,125,164,-28,8,-39,-36,-144,10
,1302,2018/03/15 17:59:42.15,-157,2283,-16259,57,87,84,129,-30,-45,-72,-106
,1303,2018/03/15 17:59:42.17,-250,2288,-16304,-49,-12,114,156,-37,-42,30,-135
,1304,2018/03/15 17:59:42.19,-151,2316,-16310,-30,7,29,63,-37,-34,11,-46
,1305,2018/03/15 17:59:42.21,-225,2328,-16196,90,130,-59,-27,-40,-32,-110,43
,1306,2018/03/15 17:59:42.23,-161,2319,-16225,119,157,-24,11,-38,-35,-138,6
,1307,2018/03/15 17:59:42.25,-125,2318,-16221,18,48,84,119,-30,-35,-33,-101
,1308,2018/03/15 17:59:42.27,-119,2349,-16210,-72,-45,110,141,-27,-31,58,-125
,1309,2018/03/15 17:59:42.29,-223,2277,-16277,-18,14,11,38,-32,-27,2,-24
,1310,2018/03/15 17:59:42.31,-131,2319,-16294,102,136,-61,-32,-34,-29,-119,46
,1311,2018/03/15 17:59:42.33,-54,2269,-16294,112,145,-3,33,-33,-36,-128,-15
,1312,2018/03/15 17:59:42.35,-167,2334,-16254,3,34,108,150,-31,-42,-18,-129
,1313,2018/03/15 17:59:42.37,-109,2282,-16263,-64,-29,101,137,-35,-36,46,-119
,1314,2018/03/15 17:59:42.39,-95,2305,-16276,4,42,-13,20,-38,-33,-23,-3
,1315,2018/03/15 17:59:42.41,-119,2250,-16237,104,145,-69,-33,-41,-36,-124,51
,1316,2018/03/15 17:59:42.43,-98,2275,-16274,96,134,27,69,-38,-42,-115,-48
,1317,2018/03/15 17:59:42.45,-149,2252,-16240,-2,32,126,167,-34,-41,-15,-146
,1318,2018/03/15 17:59:42.47,-176,2241,-16259,-62,-26,83,119,-36,-36,44,-101
,1319,2018/03/15 17:59:42.49,-157,2233,-16225,18,56,-31,1,-38,-32,-37,15
,1320,2018/03/15 17:59:42.51,-213,2265,-16255,114,153,-64,-31,-39,-33,-133,47
,1321,2018/03/15 17:59:42.53,-149,2284,-16278,78,111,35,73,-33,-38,-94,-54
,1322,2018/03/15 17:59:42.55,-118,2324,-16251,-32,0,133,170,-32,-37,16,-151
,1323,2018/03/15 17:59:42.57,-161,2358,-16280,-49,-16,80,112,-33,-32,32,-96
,1324,2018/03/15 17:59:42.59,-161,2303,-16245,43,80,-36,-5,-37,-31,-61,20
,1325,2018/03/15 17:59:42.61,-172,2286,-16208,121,156,-52,-21,-35,-31,-138,36
,1326,2018/03/15 17:59:42.63,-135,2232,-16247,56,85,52,90,-29,-38,-70,-71
,1327,2018/03/15 17:59:42.65,-217,2171,-16221,-48,-17,122,159,-31,-37,32,-140
,1328,2018/03/15 17:59:42.67,-86,2285,-16272,-52,-18,45,78,-34,-33,35,-61
,1329,2018/03/15 17:59:42.69,-170,2271,-16304,62,102,-52,-17,-40,-35,-82,34
,1330,2018/03/15 17:59:42.71,-159,2299,-16273,122,162,-39,-3,-40,-36,-142,21
,1331,2018/03/15 17:59:42.73,-118,2352,-16247,44,76,78,117,-32,-39,-60,-97
,1332,2018/03/15 17:59:42.75,-123,2267,-16201,-52,-18,124,165,-34,-41,35,-144
,1333,2018/03/15 17:59:42.77,-126,2347,-16225,-27,14,38,79,-41,-41,6,-58
,1334,2018/03/15 17:59:42.79,-120,2372,-16275,90,140,-54,-11,-50,-43,-115,32
,1335,2018/03/15 17:59:42.81,-107,2278,-16298,120,169,-23,22,-49,-45,-144,0
,1336,2018/03/15 17:59:42.83,-192,2321,-16300,23,60,94,133,-37,-39,-41,-113
,1337,2018/03/15 17:59:42.85,-137,2320,-16230,-59,-27,116,153,-32,-37,43,-134
,1338,2018/03/15 17:59:42.87,-174,2322,-16214,-13,22,13,44,-35,-31,-4,-28
,1339,2018/03/15 17:59:42.89,-184,2296,-16237,96,134,-68,-37,-38,-31,-115,52
,1340,2018/03/15 17:59:42.91,-75,2301,-16208,101,136,-11,27,-35,-38,-118,-8
,1341,2018/03/15 17:59:42.93,-142,2270,-16265,3,37,110,149,-34,-39,-20,-129
,1342,2018/03/15 17:59:42.95,-151,2349,-16210,-59,-25,107,145,-34,-38,42,-126
,1343,2018/03/15 17:59:42.97,-134,2307,-16242,19,56,4,36,-37,-32,-37,-20
,1344,2018/03/15 17:59:42.99,-120,2257,-16313,120,158,-71,-40,-38,-31,-139,55
,1345,2018/03/15 17:59:43.01,-175,2290,-16280,97,135,16,56,-38,-40,-116,-36
,1346,2018/03/15 17:59:43.03,-172,2276,-16199,-13,23,117,156,-36,-39,-5,-136
,1347,2018/03/15 17:59:43.05,-144,2292,-16219,-63,-32,88,120,-31,-32,47,-104
,1348,2018/03/15 17:59:43.07,-134,2300,-16143,24,52,-25,-8,-28,-17,-38,16
,1349,2018/03/15 17:59:43.09,-244,2264,-16265,117,138,-60,-41,-21,-19,-127,50
,1350,2018/03/15 17:59:43.11,-197,2286,-16258,83,105,38,67,-22,-29,-94,-52
,1351,2018/03/15 17:59:43.13,-154,2252,-16247,-30,-5,118,150,-25,-32,17,-134
,1352,2018/03/15 17:59:43.15,-91,2224,-16258,-63,-34,68,98,-29,-30,48,-83
,1353,2018/03/15 17:59:43.17,-122,2258,-16250,42,75,-38,-11,-33,-27,-58,24
,1354,2018/03/15 17:59:43.19,-157,2275,-16272,124,158,-49,-17,-34,-32,-141,33
,1355,2018/03/15 17:59:43.21,-110,2258,-16276,68,98,60,96,-30,-36,-83,-78
,1356,2018/03/15 17:59:43.23,-101,2202,-16284,-40,-11,126,162,-29,-36,25,-144
,1357,2018/03/15 17:59:43.25,-179,2269,-16306,-44,-12,60,88,-32,-28,28,-74
,1358,2018/03/15 17:59:43.27,-176,2250,-16274,74,110,-42,-13,-36,-29,-92,27
,1359,2018/03/15 17:59:43.29,-95,2273,-16294,128,162,-39,-6,-34,-33,-145,22
,1360,2018/03/15 17:59:43.31,-93,2357,-16250,44,76,74,116,-32,-42,-60,-95
,1361,2018/03/15 17:59:43.33,-136,2350,-16229,-53,-16,122,167,-37,-45,34,-144
,1362,2018/03/15 17:59:43.35,-141,2374,-16290,-30,16,38,81,-46,-43,7,-59
,1363,2018/03/15 17:59:43.37,-193,2312,-16260,89,137,-38,-3,-48,-35,-113,20
,1364,2018/03/15 17:59:43.39,-173,2320,-16303,129,167,-16,22,-38,-38,-148,-3
,1365,2018/03/15 17:59:43.41,-121,2259,-16231,20,58,102,146,-38,-44,-39,-124
,1366,2018/03/15 17:59:43.43,-178,2253,-16225,-52,-17,116,154,-35,-38,34,-135
,1367,2018/03/15 17:59:43.45,-147,2152,-16221,-16,24,13,50,-40,-37,-4,-31
,1368,2018/03/15 17:59:43.47,-144,2205,-16249,91,136,-64,-32,-45,-32,-113,48
,1369,2018/03/15 17:59:43.49,-120,2346,-16299,108,147,-6,35,-39,-41,-127,-14
,1370,2018/03/15 17:59:43.51,-99,2355,-16339,4,39,106,147,-35,-41,-21,-126
,1371,2018/03/15 17:59:43.53,-141,2279,-16286,-62,-28,100,134,-34,-34,45,-117
,1372,2018/03/15 17:59:43.55,-190,2304,-16221,-6,28,-15,14,-34,-29,-11,0
,1373,2018/03/15 17:59:43.57,-104,2331,-16178,102,139,-66,-34,-37,-32,-120,50
,1374,2018/03/15 17:59:43.59,-165,2287,-16247,100,131,14,47,-31,-33,-115,-30
,1375,2018/03/15 17:59:43.61,-161,2316,-16302,-22,7,97,138,-29,-41,7,-117
,1376,2018/03/15 17:59:43.63,-151,2247,-16266,-77,-41,80,116,-36,-36,59,-98
,1377,2018/03/15 17:59:43.65,-74,2262,-16252,16,53,-35,-3,-37,-32,-34,19
,1378,2018/03/15 17:59:43.67,-99,2290,-16201,104,144,-68,-33,-40,-35,-124,50
,1379,2018/03/15 17:59:43.69,-142,2273,-16273,82,115,40,78,-33,-38,-98,-59
,1380,2018/03/15 17:59:43.71,-196,2283,-16232,-23,10,133,176,-33,-43,6,-154
,1381,2018/03/15 17:59:43.73,-95,2236,-16237,-47,-11,80,116,-36,-36,29,-98
,1382,2018/03/15 17:59:43.75,-133,2237,-16185,50,88,-32,-3,-38,-29,-69,17
,1383,2018/03/15 17:59:43.77,-203,2254,-16211,132,168,-44,-13,-36,-31,-150,28
,1384,2018/03/15 17:59:43.79,-171,2257,-16307,83,107,60,95,-24,-35,-95,-77
,1385,2018/03/15 17:59:43.81,-179,2231,-16333,-42,-13,116,150,-29,-34,27,-133
,1386,2018/03/15 17:59:43.83,-124,2234,-16241,-35,-4,74,102,-31,-28,19,-88
,1387,2018/03/15 17:59:43.85,-147,2252,-16257,86,124,-38,-5,-38,-33,-105,21
,1388,2018/03/15 17:59:43.87,-193,2227,-16235,135,174,-31,2,-39,-33,-154,14
,1389,2018/03/15 17:59:43.89,-162,2263,-16201,54,84,80,118,-30,-38,-69,-99
,1390,2018/03/15 17:59:43.91,-104,2207,-16255,-52,-23,125,159,-29,-34,37,-142
,1391,2018/03/15 17:59:43.93,-166,2231,-16258,-25,5,47,72,-30,-25,10,-59
,1392,2018/03/15 17:59:43.95,-157,2244,-16242,94,128,-51,-23,-34,-28,-111,37
,1393,2018/03/15 17:59:43.97,-127,2246,-16240,122,156,-20,11,-34,-31,-139,4
,1394,2018/03/15 17:59:43.99,-150,2219,-16260,35,62,104,137,-27,-33,-48,-120
,1395,2018/03/15 17:59:44.01,-111,2259,-16233,-48,-20,131,163,-28,-32,34,-147
,1396,2018/03/15 17:59:44.03,-151,2250,-16197,-1,30,33,59,-31,-26,-14,-46
,1397,2018/03/15 17:59:44.05,-168,2278,-16257,118,154,-47,-16,-36,-31,-136,31
,1398,2018/03/15 17:59:44.07,-170,2233,-16236,125,159,6,39,-34,-33,-142,-22
,1399,2018/03/15 17:59:44.09,-180,2231,-16238,18,46,118,153,-28,-35,-32,-135
,1400,2018/03/15 17:59:44.11,-229,2291,-16228,-56,-28,113,143,-28,-30,42,-128
,1401,2018/03/15 17:59:44.13,-171,2281,-16218,14,44,8,34,-30,-26,-29,-21
,1402,2018/03/15 17:59:44.15,-206,2288,-16227,126,161,-55,-22,-35,-33,-143,38
,1403,2018/03/15 17:59:44.17,-219,2375,-16261,107,143,24,60,-36,-36,-125,-42
,1404,2018/03/15 17:59:44.19,-176,2311,-16285,-4,25,132,166,-29,-34,-10,-149
,1405,2018/03/15 17:59:44.21,-148,2342,-16254,-57,-27,98,130,-30,-32,42,-114
,1406,2018/03/15 17:59:44.23,-196,2320,-16288,19,53,-16,15,-34,-31,-36,0
,1407,2018/03/15 17:59:44.25,-123,2237,-16257,121,161,-65,-28,-40,-37,-141,46
,1408,2018/03/15 17:59:44.27,-161,2229,-16244,84,118,42,78,-34,-36,-101,-60
,1409,2018/03/15 17:59:44.29,-240,2199,-16201,-25,3,122,160,-28,-38,11,-141
,1410,2018/03/15 17:59:44.31,-157,2274,-16210,-60,-24,71,110,-36,-39,42,-90
,1411,2018/03/15 17:59:44.33,-197,2395,-16285,50,92,-27,5,-42,-32,-71,11
,1412,2018/03/15 17:59:44.35,-216,2288,-16278,136,174,-46,-13,-38,-33,-155,29
,1413,2018/03/15 17:59:44.37,-181,2254,-16266,68,99,80,115,-31,-35,-83,-97
,1414,2018/03/15 17:59:44.39,-170,2288,-16181,-7,18,160,189,-25,-29,-5,-174
,1415,2018/03/15 17:59:44.41,-171,2256,-16202,-26,0,67,94,-26,-27,13,-80
,1416,2018/03/15 17:59:44.43,-102,2237,-16256,81,116,-32,-7,-35,-25,-98,19
,1417,2018/03/15 17:59:44.45,-169,2255,-16301,144,174,-27,1,-30,-28,-159,13
,1418,2018/03/15 17:59:44.47,-164,2295,-16262,52,79,85,119,-27,-34,-65,-102
,1419,2018/03/15 17:59:44.49,-195,2250,-16249,-43,-17,132,164,-26,-32,30,-148
,1420,2018/03/15 17:59:44.51,-184,2246,-16250,-19,11,51,76,-30,-25,4,-63
,1421,2018/03/15 17:59:44.53,-171,2266,-16291,104,135,-39,-13,-31,-26,-119,26
,1422,2018/03/15 17:59:44.55,-206,2259,-16212,138,170,-8,26,-32,-34,-154,-9
,1423,2018/03/15 17:59:44.57,-208,2153,-16275,38,70,114,153,-32,-39,-54,-133
,1424,2018/03/15 17:59:44.59,-195,2214,-16224,-37,-3,142,184,-34,-42,20,-163
,1425,2018/03/15 17:59:44.61,-161,2249,-16300,24,63,47,80,-39,-33,-43,-63
,1426,2018/03/15 17:59:44.63,-133,2187,-16335,145,182,-34,-8,-37,-26,-163,21
,1427,2018/03/15 17:59:44.65,-181,2252,-16295,143,177,28,62,-34,-34,-160,-45
,1428,2018/03/15 17:59:44.67,-199,2231,-16215,35,64,149,181,-29,-32,-49,-165
,1429,2018/03/15 17:59:44.69,-218,2234,-16197,-29,-4,124,158,-25,-34,16,-141
,1430,2018/03/15 17:59:44.71,-205,2201,-16236,26,59,14,42,-33,-28,-42,-28
,1431,2018/03/15 17:59:44.73,-187,2221,-16304,140,175,-44,-19,-35,-25,-157,31
,1432,2018/03/15 17:59:44.75,-154,2280,-16242,115,142,29,58,-27,-29,-128,-43
,1433,2018/03/15 17:59:44.77,-276,2221,-16280,-5,18,125,156,-23,-31,-6,-140
,1434,2018/03/15 17:59:44.79,-173,2205,-16273,-50,-24,106,136,-26,-30,37,-121
,1435,2018/03/15 17:59:44.81,-207,2196,-16276,39,69,-15,8,-30,-23,-54,3
,1436,2018/03/15 17:59:44.83,-204,2179,-16254,130,159,-47,-23,-29,-24,-144,35
,1437,2018/03/15 17:59:44.85,-169,2238,-16224,98,123,54,83,-25,-29,-110,-68
,1438,2018/03/15 17:59:44.87,-163,2261,-16284,-16,6,137,166,-22,-29,5,-151
,1439,2018/03/15 17:59:44.89,-119,2304,-16258,-41,-14,91,120,-27,-29,27,-105
,1440,2018/03/15 17:59:44.91,-209,2303,-16249,64,99,-25,2,-35,-27,-81,11
,1441,2018/03/15 17:59:44.93,-293,2255,-16253,131,164,-44,-13,-33,-31,-147,28
,1442,2018/03/15 17:59:44.95,-172,2254,-16279,77,110,81,119,-33,-38,-93,-100
,1443,2018/03/15 17:59:44.97,-265,2259,-16244,-18,11,148,179,-29,-31,3,-163
,1444,2018/03/15 17:59:44.99,-207,2267,-16242,-28,0,70,99,-28,-29,14,-84
,1445,2018/03/15 17:59:45.01,-146,2273,-16297,85,122,-20,7,-37,-27,-103,6
,1446,2018/03/15 17:59:45.03,-162,2269,-16291,141,174,-26,4,-33,-30,-157,11
,1447,2018/03/15 17:59:45.05,-161,2224,-16212,50,74,96,128,-24,-32,-62,-112
,1448,2018/03/15 17:59:45.07,-162,2282,-16245,-36,-12,132,162,-24,-30,24,-147
,1449,2018/03/15 17:59:45.09,-227,2204,-16243,-18,8,52,77,-26,-25,5,-64
,1450,2018/03/15 17:59:45.11,-251,2162,-16192,103,136,-43,-16,-33,-27,-119,29
,1451,2018/03/15 17:59:45.13,-230,2194,-16232,129,163,-14,20,-34,-34,-146,-3
,1452,2018/03/15 17:59:45.15,-105,2288,-16321,33,65,100,137,-32,-37,-49,-118
,1453,2018/03/15 17:59:45.17,-220,2301,-16286,-53,-23,129,164,-30,-35,38,-146
,1454,2018/03/15 17:59:45.19,-224,2243,-16322,4,39,34,65,-35,-31,-21,-49
,1455,2018/03/15 17:59:45.21,-168,2260,-16223,118,157,-48,-16,-39,-32,-137,32
,1456,2018/03/15 17:59:45.23,-171,2275,-16201,127,162,9,45,-35,-36,-144,-27
,1457,2018/03/15 17:59:45.25,-152,2217,-16282,19,51,126,165,-32,-39,-35,-145
,1458,2018/03/15 17:59:45.27,-167,2220,-16265,-44,-10,127,166,-34,-39,27,-146
,1459,2018/03/15 17:59:45.29,-198,2267,-16219,25,65,9,41,-40,-32,-45,-25
,1460,2018/03/15 17:59:45.31,-200,2276,-16308,122,162,-50,-17,-40,-33,-142,33
,1461,2018/03/15 17:59:45.33,-178,2203,-16294,118,155,38,76,-37,-38,-136,-57
,1462,2018/03/15 17:59:45.35,-167,2219,-16256,4,34,129,165,-30,-36,-19,-147
,1463,2018/03/15 17:59:45.37,-131,2195,-16244,-53,-23,101,134,-30,-33,38,-117
,1464,2018/03/15 17:59:45.39,-61,2171,-16244,36,73,-12,19,-37,-31,-54,-3
,1465,2018/03/15 17:59:45.41,-160,2176,-16282,131,171,-47,-15,-40,-32,-151,31
,1466,2018/03/15 17:59:45.43,-77,2259,-16265,113,142,56,90,-29,-34,-127,-73
,1467,2018/03/15 17:59:45.45,-165,2225,-16319,-17,12,127,160,-29,-33,2,-143
,1468,2018/03/15 17:59:45.47,-172,2263,-16305,-44,-12,87,119,-32,-32,28,-103
,1469,2018/03/15 17:59:45.49,-126,2281,-16233,64,104,-26,10,-40,-36,-84,8
,1470,2018/03/15 17:59:45.51,-191,2266,-16252,137,182,-40,-2,-45,-38,-159,21
,1471,2018/03/15 17:59:45.53,-121,2253,-16257,74,109,65,102,-35,-37,-91,-83
,1472,2018/03/15 17:59:45.55,-160,2277,-16242,-33,-6,137,174,-27,-37,19,-155
,1473,2018/03/15 17:59:45.57,-144,2236,-16263,-37,-5,59,88,-32,-29,21,-73
,1474,2018/03/15 17:59:45.59,-174,2258,-16249,72,108,-42,-12,-36,-30,-90,27
,1475,2018/03/15 17:59:45.61,-141,2273,-16314,136,175,-26,7,-39,-33,-155,9
,1476,2018/03/15 17:59:45.63,-173,2332,-16253,54,82,81,115,-28,-34,-68,-98
,1477,2018/03/15 17:59:45.65,-136,2311,-16242,-54,-28,118,149,-26,-31,41,-133
,1478,2018/03/15 17:59:45.67,-127,2291,-16314,-27,2,56,81,-29,-25,12,-68
,1479,2018/03/15 17:59:45.69,-203,2318,-16294,118,148,-37,-13,-30,-24,-133,25
,1480,2018/03/15 17:59:45.71,-195,2295,-16290,127,156,-28,0,-29,-28,-141,14
,1481,2018/03/15 17:59:45.73,-114,2247,-16222,18,43,95,126,-25,-31,-30,-110
,1482,2018/03/15 17:59:45.75,-206,2250,-16291,-54,-31,126,154,-23,-28,42,-140
,1483,2018/03/15 17:59:45.77,-219,2318,-16222,-5,25,23,49,-30,-26,-10,-36
,1484,2018/03/15 17:59:45.79,-178,2365,-16226,116,150,-46,-18,-34,-28,-133,32
,1485,2018/03/15 17:59:45.81,-165,2354,-16291,128,160,15,47,-32,-32,-144,-31
,1486,2018/03/15 17:59:45.83,-135,2343,-16257,26,54,141,177,-28,-36,-40,-159
,1487,2018/03/15 17:59:45.85,-164,2291,-16266,-41,-13,129,161,-28,-32,27,-145
,1488,2018/03/15 17:59:45.87,-249,2279,-16248,29,57,22,48,-28,-26,-43,-35
,1489,2018/03/15 17:59:45.89,-189,2275,-16228,146,182,-38,-7,-36,-31,-164,22
,1490,2018/03/15 17:59:45.91,-226,2283,-16285,131,163,49,81,-32,-32,-147,-65
,1491,2018/03/15 17:59:45.93,-188,2185,-16256,0,23,137,164,-23,-27,-11,-150
,1492,2018/03/15 17:59:45.95,-137,2250,-16324,-28,-7,144,165,-21,-21,17,-154
,1493,2018/03/15 17:59:45.97,-144,2311,-16305,66,93,-6,19,-27,-25,-79,-6
,1494,2018/03/15 17:59:45.99,-107,2269,-16287,127,164,-46,-16,-37,-30,-145,31
,1495,2018/03/15 17:59:46.01,-187,2232,-16241,105,133,55,85,-28,-30,-119,-70
,1496,2018/03/15 17:59:46.03,-136,2252,-16239,-24,2,123,158,-26,-35,11,-140
,1497,2018/03/15 17:59:46.05,-125,2283,-16220,-58,-25,73,108,-33,-35,41,-90
,1498,2018/03/15 17:59:46.07,-115,2256,-16307,53,92,-32,-2,-39,-30,-72,17
,1499,2018/03/15 17:59:46.09,-96,2205,-16317,130,168,-45,-10,-38,-35,-149,27
,1500,2018/03/15 17:59:46.11,-73,2251,-16261,71,105,63,100,-34,-37,-88,-81
,1501,2018/03/15 17:59:46.13,-39,2223,-16258,-41,-14,131,162,-27,-31,27,-146
,1502,2018/03/15 17:59:46.15,-184,2226,-16232,-35,-7,66,96,-28,-30,21,-81
,1503,2018/03/15 17:59:46.17,-127,2264,-16245,76,118,-46,-9,-42,-37,-97,27
,1504,2018/03/15 17:59:46.19,-90,2229,-16255,126,170,-31,9,-44,-40,-148,11
,1505,2018/03/15 17:59:46.21,-122,2203,-16227,60,94,98,138,-34,-40,-77,-118
,1506,2018/03/15 17:59:46.23,-91,2294,-16225,-40,-9,130,168,-31,-38,24,-149
,1507,2018/03/15 17:59:46.25,-77,2303,-16290,-16,23,39,74,-39,-35,-3,-56
,1508,2018/03/15 17:59:46.27,-203,2252,-16284,99,141,-38,-10,-42,-28,-120,24
,1509,2018/03/15 17:59:46.29,-215,2302,-16335,151,187,19,53,-36,-34,-169,-36
,1510,2018/03/15 17:59:46.31,-160,2336,-16280,56,86,131,167,-30,-36,-71,-149
,1511,2018/03/15 17:59:46.33,-260,2291,-16222,-34,-5,140,172,-29,-32,19,-156
,1512,2018/03/15 17:59:46.35,-205,2228,-16243,14,49,40,69,-35,-29,-31,-54
,1513,2018/03/15 17:59:46.37,-168,2229,-16219,129,166,-40,-12,-37,-28,-147,26
,1514,2018/03/15 17:59:46.39,-147,2297,-16233,134,166,24,58,-32,-34,-150,-41
,1515,2018/03/15 17:59:46.41,-194,2264,-16284,36,66,161,195,-30,-34,-51,-178
,1516,2018/03/15 17:59:46.43,-185,2294,-16251,-18,6,132,162,-24,-30,6,-147
,1517,2018/03/15 17:59:46.45,-174,2264,-16285,21,54,-1,28,-33,-29,-37,-13
,1518,2018/03/15 17:59:46.47,-107,2228,-16200,114,149,-62,-36,-35,-26,-131,49
,1519,2018/03/15 17:59:46.49,-132,2278,-16226,104,129,30,56,-25,-26,-116,-43
,1520,2018/03/15 17:59:46.51,-167,2236,-16226,-4,13,124,150,-17,-26,-4,-137
,1521,2018/03/15 17:59:46.53,-169,2301,-16276,-55,-29,102,132,-26,-30,42,-117
,1522,2018/03/15 17:59:46.55,-202,2289,-16265,44,80,-8,20,-36,-28,-62,-6
,1523,2018/03/15 17:59:46.57,-174,2239,-16249,140,176,-33,-3,-36,-30,-158,18
,1524,2018/03/15 17:59:46.59,-131,2323,-16241,116,147,76,112,-31,-36,-131,-94
,1525,2018/03/15 17:59:46.61,-118,2281,-16270,-2,26,149,182,-28,-33,-12,-165
,1526,2018/03/15 17:59:46.63,-156,2295,-16253,-27,4,101,133,-31,-32,11,-117
,1527,2018/03/15 17:59:46.65,-204,2288,-16299,73,111,-14,19,-38,-33,-92,-2
,1528,2018/03/15 17:59:46.67,-201,2274,-16190,149,186,-19,12,-37,-31,-167,3
,1529,2018/03/15 17:59:46.69,-165,2203,-16266,96,120,97,133,-24,-36,-108,-115
,1530,2018/03/15 17:59:46.71,-140,2205,-16222,-16,12,146,180,-28,-34,2,-163
,1531,2018/03/15 17:59:46.73,-162,2192,-16200,-2,30,104,135,-32,-31,-14,-119
,1532,2018/03/15 17:59:46.75,-165,2215,-16252,107,144,-38,-9,-37,-29,-125,23
,1533,2018/03/15 17:59:46.77,-149,2267,-16293,121,154,-47,-15,-33,-32,-137,31
,1534,2018/03/15 17:59:46.79,-164,2291,-16330,34,66,76,116,-32,-40,-50,-96
,1535,2018/03/15 17:59:46.81,-106,2272,-16297,-50,-20,131,165,-30,-34,35,-148
,1536,2018/03/15 17:59:46.83,-166,2259,-16260,-21,15,38,74,-36,-36,3,-56
,1537,2018/03/15 17:59:46.85,-160,2326,-16216,96,140,-48,-13,-44,-35,-118,30
,1538,2018/03/15 17:59:46.87,-119,2234,-16279,131,171,-4,33,-40,-37,-151,-14
,1539,2018/03/15 17:59:46.89,-152,2225,-16274,41,72,111,150,-31,-39,-56,-130
,1540,2018/03/15 17:59:46.91,-104,2245,-16279,-44,-10,135,175,-34,-40,27,-155
,1541,2018/03/15 17:59:46.93,-98,2238,-16244,9,48,35,67,-39,-32,-28,-51
,1542,2018/03/15 17:59:46.95,-164,2227,-16232,132,173,-35,1,-41,-36,-152,17
,1543,2018/03/15 17:59:46.97,-129,2260,-16248,133,172,20,59,-39,-39,-152,-39
,1544,2018/03/15 17:59:46.99,-123,2247,-16226,23,56,131,170,-33,-39,-39,-150
,1545,2018/03/15 17:59:47.01,-152,2209,-16236,-44,-11,122,160,-33,-38,27,-141
,1546,2018/03/15 17:59:47.03,-124,2217,-16225,27,66,7,40,-39,-33,-46,-23
,1547,2018/03/15 17:59:47.05,-146,2289,-16264,131,172,-33,3,-41,-36,-151,15
,1548,2018/03/15 17:59:47.07,-174,2227,-16306,141,184,47,87,-43,-40,-162,-67
,1549,2018/03/15 17:59:47.09,-151,2239,-16297,-4,27,124,158,-31,-34,-11,-141
,1550,2018/03/15 17:59:47.11,-123,2260,-16246,-60,-28,92,125,-32,-33,44,-108
,1551,2018/03/15 17:59:47.13,-210,2299,-16212,32,65,-25,-1,-33,-24,-48,13
,1552,2018/03/15 17:59:47.15,-148,2273,-16198,123,155,-51,-23,-32,-28,-139,37
,1553,2018/03/15 17:59:47.17,-198,2249,-16256,94,123,55,89,-29,-34,-108,-72
,1554,2018/03/15 17:59:47.19,-231,2275,-16249,-18,12,135,177,-30,-42,3,-156
,1555,2018/03/15 17:59:47.21,-146,2236,-16284,-43,-6,80,115,-37,-35,24,-97
,1556,2018/03/15 17:59:47.23,-201,2234,-16239,60,97,-32,-3,-37,-29,-78,17
,1557,2018/03/15 17:59:47.25,-39,2211,-16202,135,173,-32,3,-38,-35,-154,14
,1558,2018/03/15 17:59:47.27,-175,2184,-16225,81,114,73,114,-33,-41,-97,-93
,1559,2018/03/15 17:59:47.29,-78,2203,-16244,-38,-5,137,174,-33,-37,21,-155
,1560,2018/03/15 17:59:47.31,-153,2216,-16264,-29,4,65,95,-33,-30,12,-80
,1561,2018/03/15 17:59:47.33,-149,2257,-16251,87,126,-34,0,-39,-34,-106,17
,1562,2018/03/15 17:59:47.35,-152,2219,-16336,142,181,-23,15,-39,-38,-161,4
,1563,2018/03/15 17:59:47.37,-238,2261,-16325,50,84,87,126,-34,-39,-67,-106
,1564,2018/03/15 17:59:47.39,-183,2261,-16268,-37,-6,160,198,-31,-38,21,-179
,1565,2018/03/15 17:59:47.41,-138,2343,-16197,7,41,49,79,-34,-30,-24,-64
,1566,2018/03/15 17:59:47.43,-200,2260,-16232,91,130,-58,-26,-39,-32,-110,42
,1567,2018/03/15 17:59:47.45,-186,2325,-16273,124,160,-14,20,-36,-34,-142,-3
